time,seconds_elapsed,z,y,x
1694673227499183000,0.05218310546875,-48.69375228881836,-23.475000381469727,8.268750190734863
1694673227519187500,0.0721875,-47.4375,-24.168750762939453,8.96250057220459
1694673227539200000,0.092199951171875,-47.04375076293945,-25.068750381469727,8.643750190734863
1694673227559220700,0.112220703125,-48.187503814697266,-25.42500114440918,8.606250762939453
1694673227579251700,0.132251708984375,-47.55000305175781,-26.193750381469727,9.206250190734863
1694673227599289300,0.152289306640625,-47.4375,-26.962501525878906,10.40625
1694673227619327500,0.172327392578125,-47.118751525878906,-27.58125114440918,10.481250762939453
1694673227639345000,0.192344970703125,-47.4375,-28.125001907348633,10.575000762939453
1694673227659350500,0.2123505859375,-46.51875305175781,-28.912500381469727,10.050000190734863
1694673227679361500,0.232361572265625,-46.21875,-30.525001525878906,9.80625057220459
1694673227699359700,0.25235986328125,-45.91875076293945,-32.13750076293945,8.96250057220459
1694673227719359500,0.272359375,-46.76250076293945,-32.681251525878906,8.53125
1694673227739353600,0.292353515625,-45.41250228881836,-34.20000076293945,8.40000057220459
1694673227759354600,0.312354736328125,-44.92500305175781,-34.85625076293945,6.881250381469727
1694673227779350300,0.332350341796875,-45.35625076293945,-35.23125076293945,5.550000190734863
1694673227799342000,0.352342041015625,-45.5625,-33.5625,5.287500381469727
1694673227819342600,0.372342529296875,-45.76875305175781,-32.75625228881836,5.8125
1694673227839338800,0.3923388671875,-45.337501525878906,-31.593751907348633,5.756250381469727
1694673227859331600,0.41233154296875,-46.06875228881836,-32.025001525878906,6.337500095367432
1694673227879333000,0.4323330078125,-45.84375,-32.19375228881836,7.031250476837158
1694673227899323600,0.45232373046875,-46.05000305175781,-32.71875,7.331250190734863
1694673227919330800,0.472330810546875,-45.73125076293945,-32.4375,7.537500381469727
1694673227939332900,0.492332763671875,-44.79375076293945,-34.01250076293945,8.418750762939453
1694673227959341600,0.512341552734375,-45.11250305175781,-34.63125228881836,8.606250762939453
1694673227979325200,0.5323251953125,-44.00625228881836,-36.618751525878906,7.143750190734863
1694673227999319600,0.552319580078125,-44.00625228881836,-36.73125076293945,6.131250381469727
1694673228019341800,0.572341796875,-44.4375,-36.91875076293945,5.512500286102295
1694673228039337000,0.5923369140625,-43.63125228881836,-37.3125,3.6937501430511475
1694673228059335400,0.61233544921875,-43.14375305175781,-37.96875,2.5875000953674316
1694673228079341600,0.632341552734375,-42.16875076293945,-37.81875228881836,-2.34375
1694673228099342000,0.652342041015625,-41.70000076293945,-37.29375076293945,-6.056250095367432
1694673228119349200,0.672349365234375,-39.806251525878906,-35.64375305175781,-11.625
1694673228139350800,0.692350830078125,-39.712501525878906,-34.368751525878906,-13.912500381469727
1694673228159347200,0.71234716796875,-39.13125228881836,-32.92500305175781,-16.387500762939453
1694673228179340300,0.73234033203125,-38.23125076293945,-29.981250762939453,-19.912500381469727
1694673228199341800,0.752341796875,-36.28125,-27.918750762939453,-22.668750762939453
1694673228219332600,0.77233251953125,-33.618751525878906,-24.712501525878906,-26.36250114440918
1694673228239324200,0.79232421875,-32.70000076293945,-22.275001525878906,-28.200000762939453
1694673228259329300,0.812329345703125,-30.412500381469727,-17.962501525878906,-29.868751525878906
1694673228279320000,0.832320068359375,-29.475000381469727,-14.175000190734863,-30.95625114440918
1694673228299311000,0.85231103515625,-27.168750762939453,-8.662500381469727,-31.068750381469727
1694673228319312100,0.87231201171875,-24.843751907348633,-4.387500286102295,-30.506250381469727
1694673228339309000,0.89230908203125,-22.42500114440918,-0.7125000357627869,-29.26875114440918
1694673228359314400,0.912314453125,-19.368751525878906,4.106250286102295,-28.275001525878906
1694673228379306000,0.932305908203125,-18.506250381469727,6.543750286102295,-27.281251907348633
1694673228399312100,0.95231201171875,-15.975000381469727,9.956250190734863,-25.537500381469727
1694673228419324400,0.972324462890625,-15.33750057220459,12.037500381469727,-24.450000762939453
1694673228439318800,0.99231884765625,-16.012500762939453,13.575000762939453,-22.59375
1694673228459321300,1.0123212890625,-15.168750762939453,14.231250762939453,-21.46875
1694673228479319000,1.032319091796875,-15.562500953674316,14.606250762939453,-20.850000381469727
1694673228499324700,1.05232470703125,-15.131250381469727,14.456250190734863,-19.743751525878906
1694673228519336200,1.072336181640625,-16.181251525878906,14.456250190734863,-19.762500762939453
1694673228539340500,1.092340576171875,-13.687500953674316,13.481250762939453,-19.743751525878906
1694673228559331800,1.112331787109375,-13.18125057220459,13.83750057220459,-20.231250762939453
1694673228579346400,1.132346435546875,-10.481250762939453,13.893750190734863,-21.412500381469727
1694673228599346700,1.1523466796875,-9.168750762939453,14.137500762939453,-22.6875
1694673228619353600,1.172353515625,-7.818750381469727,13.593750953674316,-23.193750381469727
1694673228639359700,1.19235986328125,-4.200000286102295,13.93125057220459,-24.543750762939453
1694673228659347000,1.212346923828125,-2.1187500953674316,13.93125057220459,-24.825000762939453
1694673228679345400,1.232345458984375,-0.4687500298023224,14.02500057220459,-24.993751525878906
1694673228699339000,1.252339111328125,-0.4687500298023224,14.11875057220459,-25.387500762939453
1694673228719335700,1.272335693359375,0.26250001788139343,14.568750381469727,-25.162500381469727
1694673228739330300,1.292330322265625,1.818750023841858,14.21250057220459,-25.368751525878906
1694673228759333600,1.312333740234375,3.375000238418579,14.662500381469727,-24.825000762939453
1694673228779332600,1.33233251953125,4.725000381469727,15.112500190734863,-24.787500381469727
1694673228799327700,1.35232763671875,6.093750476837158,15.393750190734863,-24.656251907348633
1694673228819331300,1.372331298828125,6.918750286102295,15.393750190734863,-24.843751907348633
1694673228839330300,1.392330322265625,7.237500190734863,15.675000190734863,-24.525001525878906
1694673228859325700,1.41232568359375,7.031250476837158,15.33750057220459,-24.131250381469727
1694673228879329300,1.432329345703125,6.712500095367432,15.225000381469727,-24.750001907348633
1694673228899321600,1.452321533203125,7.537500381469727,14.343750953674316,-24.86250114440918
1694673228919330000,1.472330078125,7.518750190734863,13.968750953674316,-25.89375114440918
1694673228939332600,1.49233251953125,7.518750190734863,13.237500190734863,-26.212501525878906
1694673228959341800,1.512341796875,8.53125,12.168750762939453,-26.325000762939453
1694673228979325700,1.53232568359375,6.975000381469727,12.318750381469727,-27.356250762939453
1694673228999320300,1.5523203125,6.862500190734863,11.34375,-27.375001907348633
1694673229019342600,1.572342529296875,6.750000476837158,10.443750381469727,-27.825000762939453
1694673229039337000,1.5923369140625,4.556250095367432,10.875,-27.937501907348633
1694673229059335400,1.61233544921875,5.512500286102295,11.512500762939453,-27.093751907348633
1694673229079341300,1.63234130859375,4.462500095367432,12.131250381469727,-27.39375114440918
1694673229099341800,1.652341796875,3.262500047683716,13.612500190734863,-24.843751907348633
1694673229119349200,1.672349365234375,2.5687501430511475,14.96250057220459,-23.8125
1694673229139339300,1.69233935546875,1.7812501192092896,17.512500762939453,-20.8125
1694673229159338500,1.71233837890625,1.1812500953674316,19.40625,-19.762500762939453
1694673229179334000,1.732333984375,-0.09375,21.262500762939453,-16.40625
1694673229199337700,1.752337646484375,-1.21875,22.443750381469727,-15.075000762939453
1694673229219331000,1.7723310546875,-2.325000047683716,23.34375,-14.156250953674316
1694673229239323400,1.792323486328125,-2.4375,23.45625114440918,-13.55625057220459
1694673229259329300,1.812329345703125,-2.1187500953674316,23.26875114440918,-13.74375057220459
1694673229279319000,1.832319091796875,-2.0250000953674316,22.89375114440918,-14.475000381469727
1694673229299312600,1.852312744140625,-0.7875000238418579,22.556251525878906,-14.156250953674316
1694673229319313400,1.8723134765625,0.26250001788139343,23.26875114440918,-14.11875057220459
1694673229339310600,1.892310546875,1.818750023841858,23.625,-14.193750381469727
1694673229359316000,1.91231591796875,2.8687500953674316,23.287500381469727,-13.781250953674316
1694673229379307300,1.932307373046875,3.5062501430511475,23.587501525878906,-12.450000762939453
1694673229399313200,1.952313232421875,3.825000047683716,24.037500381469727,-12.037500381469727
1694673229419325200,1.9723251953125,4.6875,25.51875114440918,-9.956250190734863
1694673229439330600,1.99233056640625,4.21875,26.64375114440918,-7.518750190734863
1694673229459341600,2.012341552734375,3.1125001907348633,27.337501525878906,-4.6875
1694673229479334100,2.032334228515625,3.8812501430511475,27.937501907348633,-2.231250047683716
1694673229499335200,2.052335205078125,6.637500286102295,28.106250762939453,0.6375000476837158
1694673229519331800,2.072331787109375,8.100000381469727,28.575000762939453,1.4625000953674316
1694673229539336200,2.092336181640625,8.90625,28.368751525878906,0.35625001788139343
1694673229559329300,2.112329345703125,11.8125,27.843751907348633,0
1694673229579326200,2.132326171875,10.762500762939453,28.23750114440918,-1.3125
1694673229599330800,2.152330810546875,11.58750057220459,28.14375114440918,-1.912500023841858
1694673229619335200,2.172335205078125,11.887500762939453,28.481250762939453,-2.8125
1694673229639334000,2.192333984375,11.30625057220459,27.412500381469727,-6.581250190734863
1694673229659328800,2.212328857421875,10.74375057220459,26.100000381469727,-9.05625057220459
1694673229679333600,2.232333740234375,10.800000190734863,25.51875114440918,-11.49375057220459
1694673229699330800,2.252330810546875,12.05625057220459,24.975000381469727,-11.68125057220459
1694673229719332400,2.272332275390625,12.037500381469727,24.787500381469727,-12.393750190734863
1694673229739329300,2.292329345703125,12.975000381469727,24.95625114440918,-12.375000953674316
1694673229759334100,2.312334228515625,13.481250762939453,24.67500114440918,-12.881250381469727
1694673229779334100,2.332334228515625,13.687500953674316,24.056251525878906,-12.99375057220459
1694673229799329800,2.352329833984375,13.36875057220459,24.225000381469727,-13.612500190734863
1694673229819333600,2.372333740234375,13.256250381469727,24.131250381469727,-13.912500381469727
1694673229839332600,2.39233251953125,11.887500762939453,24,-15.05625057220459
1694673229859328000,2.412327880859375,10.612500190734863,22.89375114440918,-16.51875114440918
1694673229879325000,2.432324951171875,9.543750762939453,22.59375,-17.83125114440918
1694673229899317800,2.45231787109375,8.381250381469727,21.825000762939453,-19.80000114440918
1694673229919327200,2.4723271484375,7.612500190734863,20.08125114440918,-21.787500381469727
1694673229939330800,2.492330810546875,6.881250381469727,20.17500114440918,-22.181251525878906
1694673229959340800,2.5123408203125,6.637500286102295,18.262500762939453,-23.36250114440918
1694673229979325400,2.532325439453125,5.587500095367432,17.4375,-24.39375114440918
1694673229999320300,2.5523203125,5.15625,16.70625114440918,-25.537500381469727
1694673230019323400,2.572323486328125,4.931250095367432,15.637500762939453,-25.687501907348633
1694673230039322000,2.592322021484375,4.725000381469727,16.443750381469727,-25.350000381469727
1694673230059325000,2.612324951171875,4.237500190734863,17.26875114440918,-24.431251525878906
1694673230079334400,2.63233447265625,4.875,17.8125,-23.381250381469727
1694673230099337700,2.652337646484375,3.656250238418579,19.368751525878906,-21.65625
1694673230119347200,2.67234716796875,2.8687500953674316,19.856250762939453,-19.931251525878906
1694673230139338800,2.6923388671875,0.9000000357627869,21.993751525878906,-19.087501525878906
1694673230159338800,2.7123388671875,-4.575000286102295,44.75625228881836,-24.318750381469727
1694673230179335000,2.7323349609375,-5.71875,45.84375,-23.400001525878906
1694673230199338800,2.7523388671875,-6.862500190734863,45.5625,-23.625
1694673230219330000,2.772330078125,-6.431250095367432,45.22500228881836,-23.325000762939453
1694673230239323000,2.792322998046875,-6.975000381469727,44.94375228881836,-23.943750381469727
1694673230259329500,2.81232958984375,-6.431250095367432,44.775001525878906,-23.64375114440918
1694673230279312000,2.832311767578125,-6.768750190734863,45.03750228881836,-23.943750381469727
1694673230299306000,2.852305908203125,-6.131250381469727,45.03750228881836,-23.625
1694673230319308500,2.87230859375,-5.925000190734863,45.01875305175781,-24.337501525878906
1694673230339307000,2.89230712890625,-5.418750286102295,44.56875228881836,-24.750001907348633
1694673230359314700,2.912314697265625,-4.481250286102295,44.47500228881836,-25.23750114440918
1694673230379305700,2.9323056640625,-3.1500000953674316,43.6875,-25.443750381469727
1694673230399312400,2.9523125,-2.9437501430511475,43.837501525878906,-25.931251525878906
1694673230419324700,2.97232470703125,-2.9625000953674316,43.10625076293945,-26.775001525878906
1694673230439330300,2.992330322265625,-2.4562501907348633,42.76875305175781,-26.775001525878906
1694673230459330300,3.012330322265625,-2.9625000953674316,42.75,-27.281251907348633
1694673230479326000,3.032325927734375,-2.4937500953674316,41.17500305175781,-29.531251907348633
1694673230499329300,3.052329345703125,-2.418750047683716,40.53750228881836,-30.975000381469727
1694673230519327700,3.07232763671875,-2.231250047683716,38.71875,-32.64375305175781
1694673230539333600,3.092333740234375,-1.125,37.53750228881836,-33.65625
1694673230559327200,3.1123271484375,-0.5250000357627869,35.64375305175781,-35.32500076293945
1694673230579325000,3.132324951171875,0.16875000298023224,34.72500228881836,-36.45000076293945
1694673230599330600,3.15233056640625,1.912500023841858,33.82500076293945,-36.84375
1694673230619342000,3.172342041015625,3.2437500953674316,31.856250762939453,-37.80000305175781
1694673230639339000,3.192339111328125,3.8625001907348633,30.693750381469727,-38.625
1694673230659333600,3.212333740234375,5.306250095367432,29.718751907348633,-38.94375228881836
1694673230679324200,3.23232421875,5.71875,28.650001525878906,-38.868751525878906
1694673230699312000,3.25231201171875,6.112500190734863,28.368751525878906,-39.46875
1694673230719318000,3.272318115234375,6.843750476837158,28.125001907348633,-39.26250076293945
1694673230739319000,3.292319091796875,6.543750286102295,28.012500762939453,-39.375
1694673230759327200,3.3123271484375,7.162500381469727,28.387500762939453,-39.46875
1694673230779329800,3.332329833984375,5.8125,28.668750762939453,-38.66250228881836
1694673230799327200,3.3523271484375,4.893750190734863,30.168750762939453,-38.92500305175781
1694673230819332600,3.37233251953125,4.387500286102295,31.14375114440918,-38.306251525878906
1694673230839332600,3.39233251953125,4.40625,32.41875076293945,-37.462501525878906
1694673230859339800,3.41233984375,4.518750190734863,33.39375305175781,-37.23750305175781
1694673230879341600,3.432341552734375,3.8062500953674316,34.21875,-36.31875228881836
1694673230899339800,3.45233984375,3.825000047683716,35.75625228881836,-35.0625
1694673230919343600,3.472343505859375,3.750000238418579,36.65625,-34.01250076293945
1694673230939342600,3.492342529296875,2.4375,38.47500228881836,-32.36250305175781
1694673230959340800,3.5123408203125,2.0250000953674316,39.712501525878906,-32.04375076293945
1694673230979324000,3.532323974609375,-0.4312500059604645,41.17500305175781,-30.525001525878906
1694673230999317800,3.55231787109375,-1.1437500715255737,42.60000228881836,-29.887500762939453
1694673231019320800,3.57232080078125,-2.043750047683716,43.51875305175781,-28.368751525878906
1694673231039320800,3.59232080078125,-1.7437500953674316,44.212501525878906,-28.631250381469727
1694673231059323600,3.61232373046875,-2.137500047683716,43.89375305175781,-27.843751907348633
1694673231079333000,3.6323330078125,-2.5687501430511475,43.98750305175781,-27.750001907348633
1694673231099336700,3.652336669921875,-3.4875001907348633,43.61250305175781,-27.67500114440918
1694673231119335000,3.6723349609375,-4.837500095367432,44.32500076293945,-27.468751907348633
1694673231139329300,3.692329345703125,-4.725000381469727,44.625,-26.64375114440918
1694673231159332000,3.71233203125,-5.4375,45.056251525878906,-26.343751907348633
1694673231179330000,3.732330078125,-4.912500381469727,44.625,-26.250001907348633
1694673231199336000,3.7523359375,-4.837500095367432,44.79375076293945,-26.850000381469727
1694673231219328500,3.77232861328125,-5.15625,44.15625,-27.48750114440918
1694673231239334000,3.792333984375,-5.568750381469727,43.61250305175781,-27.506250381469727
1694673231259338000,3.812337890625,-5.175000190734863,42.97500228881836,-28.312501907348633
1694673231279326000,3.832325927734375,-5.381250381469727,43.33125305175781,-28.406251907348633
1694673231299316200,3.852316162109375,-5.175000190734863,43.06875228881836,-28.312501907348633
1694673231319316500,3.87231640625,-5.287500381469727,42.86250305175781,-29.025001525878906
1694673231339316200,3.892316162109375,-5.081250190734863,41.34375,-29.587501525878906
1694673231359320000,3.912320068359375,-4.462500095367432,41.36250305175781,-29.36250114440918
1694673231379315000,3.93231494140625,-3.9562501907348633,40.89375305175781,-30.281251907348633
1694673231399318500,3.952318603515625,-4.181250095367432,40.51875305175781,-31.106250762939453
1694673231419328800,3.972328857421875,-4.200000286102295,39.50625228881836,-32.13750076293945
1694673231439332600,3.99233251953125,-3.5062501430511475,37.875,-33.69375228881836
1694673231459331000,4.0123310546875,-3.5250000953674316,36.806251525878906,-34.42500305175781
1694673231479326000,4.032325927734375,-1.9875000715255737,35.71875,-35.75625228881836
1694673231499328800,4.052328857421875,-0.768750011920929,34.275001525878906,-36.48750305175781
1694673231519327000,4.072326904296875,-0.26250001788139343,33.1875,-37.3125
1694673231539332600,4.09233251953125,0.956250011920929,31.837501525878906,-38.34375
1694673231559326500,4.112326416015625,2.1937501430511475,31.031251907348633,-38.85000228881836
1694673231579335400,4.13233544921875,3.1125001907348633,28.98750114440918,-39.50625228881836
1694673231599338500,4.15233837890625,4.125,28.256250381469727,-40.3125
1694673231619340300,4.17234033203125,5.287500381469727,27.30000114440918,-39.712501525878906
1694673231639337700,4.192337646484375,6,26.493751525878906,-40.23750305175781
1694673231659330600,4.21233056640625,6.093750476837158,26.400001525878906,-40.33125305175781
1694673231679320800,4.23232080078125,6.412500381469727,26.325000762939453,-39.73125076293945
1694673231699321000,4.252321044921875,6.412500381469727,26.400001525878906,-40.42500305175781
1694673231719324700,4.27232470703125,6.112500190734863,27.30000114440918,-39.69375228881836
1694673231739324000,4.292323974609375,5.381250381469727,27.656251907348633,-39.69375228881836
1694673231759330600,4.31233056640625,5.193750381469727,28.743751525878906,-38.56875228881836
1694673231779331800,4.332331787109375,4.387500286102295,29.906251907348633,-38.34375
1694673231799328500,4.35232861328125,4.293750286102295,31.068750381469727,-37.70625305175781
1694673231819332900,4.372332763671875,3.4875001907348633,32.51250076293945,-36.86250305175781
1694673231839332600,4.39233251953125,2.4562501907348633,33.76875305175781,-36.03750228881836
1694673231859339300,4.41233935546875,1.5562500953674316,35.66250228881836,-34.6875
1694673231879332400,4.432332275390625,0.20625001192092896,36.91875076293945,-34.16250228881836
1694673231899326700,4.45232666015625,-0.375,38.45625305175781,-32.212501525878906
1694673231919333600,4.472333740234375,-0.862500011920929,39.82500076293945,-31.162500381469727
1694673231939335200,4.492335205078125,-2.1937501430511475,41.53125,-30.037500381469727
1694673231959344000,4.51234423828125,-2.3812501430511475,41.64375305175781,-29.118751525878906
1694673231979327000,4.532326904296875,-3.3187501430511475,42.07500076293945,-28.818750381469727
1694673231999322000,4.552322021484375,-2.981250047683716,41.83125305175781,-28.312501907348633
1694673232019324400,4.572324462890625,-3.2062501907348633,42.01875305175781,-28.125001907348633
1694673232039326500,4.592326416015625,-4.537500381469727,42.375,-27.412500381469727
1694673232059327700,4.61232763671875,-4.518750190734863,42.9375,-26.381250381469727
1694673232079336000,4.6323359375,-4.725000381469727,43.81875228881836,-26.775001525878906
1694673232099338500,4.65233837890625,-4.612500190734863,43.650001525878906,-26.475000381469727
1694673232119347500,4.672347412109375,-4.931250095367432,44.17500305175781,-26.775001525878906
1694673232139338500,4.69233837890625,-4.725000381469727,43.556251525878906,-26.381250381469727
1694673232159338500,4.71233837890625,-4.612500190734863,43.556251525878906,-26.475000381469727
1694673232179334400,4.73233447265625,-4.518750190734863,43.20000076293945,-26.681251525878906
1694673232199338500,4.75233837890625,-4.537500381469727,42.82500076293945,-27.412500381469727
1694673232219330300,4.772330322265625,-4.237500190734863,42.01875305175781,-27.825000762939453
1694673232239334700,4.792334716796875,-3.3937501907348633,42.09375,-28.012500762939453
1694673232259338200,4.812338134765625,-2.793750047683716,42.1875,-28.406251907348633
1694673232279318000,4.832318115234375,-2.3812501430511475,41.64375305175781,-29.025001525878906
1694673232299310000,4.85231005859375,-1.7625000476837158,40.931251525878906,-29.231250762939453
1694673232319314200,4.872314208984375,-1.9875000715255737,40.368751525878906,-30.056251525878906
1694673232339322000,4.892322021484375,-2.1937501430511475,40.01250076293945,-30.375001907348633
1694673232359324400,4.912324462890625,-2.0062501430511475,39.54375076293945,-31.593751907348633
1694673232379318300,4.932318359375,-1.6125000715255737,38.53125,-32.73750305175781
1694673232399321000,4.952321044921875,-0.8062500357627869,37.275001525878906,-33.86250305175781
1694673232419330600,4.97233056640625,0.1875,35.19375228881836,-35.625
1694673232439333600,4.992333740234375,0.7875000238418579,33.91875076293945,-36.5625
1694673232459331800,5.012331787109375,1.3875000476837158,32.306251525878906,-37.51875305175781
1694673232479326000,5.032325927734375,2.512500047683716,31.856250762939453,-38.212501525878906
1694673232499328500,5.05232861328125,4.462500095367432,29.718751907348633,-38.94375228881836
1694673232519326700,5.07232666015625,5.512500286102295,28.837501525878906,-38.868751525878906
1694673232539333400,5.09233349609375,6.637500286102295,27.412500381469727,-38.775001525878906
1694673232559326200,5.112326171875,7.575000286102295,26.887500762939453,-39.1875
1694673232579335200,5.132335205078125,7.987500190734863,26.250001907348633,-39.618751525878906
1694673232599338000,5.152337890625,8.49375057220459,26.17500114440918,-39.39375305175781
1694673232619347500,5.172347412109375,8.193750381469727,25.98750114440918,-39.20625305175781
1694673232639342800,5.1923427734375,7.668750286102295,27.056251525878906,-39.48750305175781
1694673232659334400,5.21233447265625,7.687500476837158,27.150001525878906,-38.98125076293945
1694673232679324400,5.232324462890625,7.162500381469727,27.937501907348633,-39.056251525878906
1694673232699323100,5.2523232421875,6.018750190734863,28.387500762939453,-38.868751525878906
1694673232719326000,5.272325927734375,5.625,29.812501907348633,-38.53125
1694673232739324700,5.29232470703125,4.387500286102295,30.881250381469727,-38.118751525878906
1694673232759330800,5.312330810546875,4.518750190734863,31.80000114440918,-36.86250305175781
1694673232779331600,5.33233154296875,3.8062500953674316,33.69375228881836,-35.92500305175781
1694673232799328300,5.352328369140625,3.2062501907348633,34.85625076293945,-35.38125228881836
1694673232819332600,5.37233251953125,2.4000000953674316,36.67500305175781,-33.54375076293945
1694673232839332000,5.39233203125,1.162500023841858,37.91250228881836,-33.01875305175781
1694673232859327500,5.412327392578125,0.35625001788139343,38.75625228881836,-31.481250762939453
1694673232879325000,5.432324951171875,-0.45000001788139343,39.82500076293945,-31.068750381469727
1694673232899321300,5.4523212890625,-0.7312500476837158,40.91250228881836,-30.131250381469727
1694673232919330000,5.472330078125,-0.9375000596046448,41.64375305175781,-29.006250381469727
1694673232939314700,5.492314697265625,-1.21875,42.11250305175781,-28.087501525878906
1694673232959320800,5.51232080078125,-2.4750001430511475,42.28125,-27.900001525878906
1694673232979314700,5.532314697265625,-3.6000001430511475,42.46875,-27.712501525878906
1694673232999312600,5.552312744140625,-4.331250190734863,42.63750076293945,-27.618751525878906
1694673233019323100,5.5723232421875,-5.475000381469727,43.16250228881836,-27.918750762939453
1694673233039323600,5.59232373046875,-4.743750095367432,43.35000228881836,-27.693750381469727
1694673233059326700,5.61232666015625,-3.8062500953674316,42.91875076293945,-27.693750381469727
1694673233079336400,5.63233642578125,-4.443750381469727,42.63750076293945,-28.012500762939453
1694673233099339500,5.652339599609375,-3.7125000953674316,42,-28.42500114440918
1694673233119337500,5.67233740234375,-3.2062501907348633,41.64375305175781,-28.725000381469727
1694673233139331600,5.69233154296875,-3.1125001907348633,40.837501525878906,-29.26875114440918
1694673233159334000,5.712333984375,-4.256250381469727,41.00625228881836,-29.475000381469727
1694673233179331300,5.732331298828125,-3.4312500953674316,40.72500228881836,-29.962501525878906
1694673233199326700,5.75232666015625,-3.750000238418579,40.72500228881836,-30.075000762939453
1694673233219324700,5.77232470703125,-3.543750047683716,40.44375228881836,-30.39375114440918
1694673233239324000,5.792323974609375,-3.2437500953674316,39.73125076293945,-30.506250381469727
1694673233259330800,5.812330810546875,-3.6750001907348633,39.35625076293945,-31.33125114440918
1694673233279313200,5.832313232421875,-2.9625000953674316,38.36250305175781,-32.45625305175781
1694673233299307800,5.852307861328125,-3.281250238418579,37.72500228881836,-32.98125076293945
1694673233319310000,5.87231005859375,-2.6812500953674316,36.54375076293945,-34.125
1694673233339328300,5.892328369140625,-2.71875,34.556251525878906,-35.38125228881836
1694673233359329500,5.91232958984375,-2.0062501430511475,33.91875076293945,-36.50625228881836
1694673233379322600,5.932322509765625,-1.6125000715255737,32.212501525878906,-37.35000228881836
1694673233399324400,5.952324462890625,-0.8062500357627869,31.218751907348633,-38.38125228881836
1694673233419332900,5.972332763671875,0.4125000238418579,29.156251907348633,-39.22500228881836
1694673233439335400,5.99233544921875,1.631250023841858,27.975000381469727,-40.14375305175781
1694673233459332900,6.012332763671875,1.8375000953674316,27.075000762939453,-40.875
1694673233479326700,6.03232666015625,2.53125,25.293750762939453,-41.4375
1694673233499329000,6.0523291015625,3.262500047683716,23.981250762939453,-40.95000076293945
1694673233519326700,6.07232666015625,3.9937500953674316,23.4375,-41.26875305175781
1694673233539325200,6.0923251953125,4.518750190734863,23.793750762939453,-41.53125
1694673233559329000,6.1123291015625,4.518750190734863,23.34375,-41.34375
1694673233579326500,6.132326416015625,4.200000286102295,23.71875,-41.25
1694673233599324000,6.152323974609375,3.7875001430511475,24.506250381469727,-41.23125076293945
1694673233619329300,6.172329345703125,3.6937501430511475,24.95625114440918,-41.118751525878906
1694673233639329300,6.192329345703125,3.187500238418579,26.025001525878906,-40.59375
1694673233659325000,6.212324951171875,3.093750238418579,27.637500762939453,-39.84375
1694673233679321300,6.2323212890625,2.2687501907348633,28.443750381469727,-39.82500076293945
1694673233699324000,6.252323974609375,0.8437500596046448,30.58125114440918,-38.775001525878906
1694673233719327700,6.27232763671875,-1.0125000476837158,31.218751907348633,-38.38125228881836
1694673233739326500,6.292326416015625,-1.2937500476837158,32.47500228881836,-37.33125305175781
1694673233759332600,6.31233251953125,-1.3875000476837158,33.65625,-36.60000228881836
1694673233779333400,6.33233349609375,-1.7062500715255737,34.61250305175781,-36.58125305175781
1694673233799329800,6.352329833984375,-1.7625000476837158,35.8125,-35.23125076293945
1694673233819334100,6.372334228515625,-2.90625,36.431251525878906,-34.53750228881836
1694673233839333400,6.39233349609375,-4.012500286102295,37.087501525878906,-33.11250305175781
1694673233859328500,6.41232861328125,-5.043750286102295,38.08125305175781,-32.587501525878906
1694673233879325400,6.432325439453125,-6.993750095367432,38.90625,-30.881250381469727
1694673233899332600,6.45233251953125,-7.500000476837158,39.28125,-29.868751525878906
1694673233919338800,6.4723388671875,-7.181250095367432,39.73125076293945,-30.168750762939453
1694673233939327700,6.49232763671875,-8.418750762939453,39.91875076293945,-29.45625114440918
1694673233959330000,6.512330078125,-9.05625057220459,40.087501525878906,-29.662500381469727
1694673233979316500,6.53231640625,-8.943750381469727,39.993751525878906,-29.568750381469727
1694673233999325000,6.552324951171875,-8.737500190734863,40.368751525878906,-29.343751907348633
1694673234019327500,6.572327392578125,-9.46875,40.33125305175781,-29.962501525878906
1694673234039321600,6.592321533203125,-9.675000190734863,39.993751525878906,-29.681251525878906
1694673234059324400,6.612324462890625,-9.5625,40.25625228881836,-29.568750381469727
1694673234079334000,6.632333984375,-9.375,40.16250228881836,-30.168750762939453
1694673234099337200,6.652337158203125,-9.168750762939453,39.78750228881836,-30.787500381469727
1694673234119335400,6.67233544921875,-8.643750190734863,39.78750228881836,-30.881250381469727
1694673234139329800,6.692329833984375,-8.568750381469727,39.431251525878906,-31.181251525878906
1694673234159332400,6.712332275390625,-8.456250190734863,39.60000228881836,-31.593751907348633
1694673234179330300,6.732330322265625,-9.09375,39.056251525878906,-31.818750381469727
1694673234199337200,6.752337158203125,-8.475000381469727,38.25,-32.23125076293945
1694673234219330800,6.772330810546875,-8.175000190734863,37.96875,-33.35625076293945
1694673234239328500,6.79232861328125,-8.606250762939453,37.66875076293945,-34.06875228881836
1694673234259334000,6.812333984375,-6.956250190734863,36.60000228881836,-34.6875
1694673234279315000,6.83231494140625,-6.768750190734863,35.868751525878906,-35.60625076293945
1694673234299307500,6.8523076171875,-5.137500286102295,33.900001525878906,-36.54375076293945
1694673234319309600,6.8723095703125,-4.725000381469727,33.16875076293945,-37.57500076293945
1694673234339308500,6.89230859375,-2.7750000953674316,31.462501525878906,-38.60625076293945
1694673234359314400,6.912314453125,-1.5562500953674316,30.20625114440918,-39.337501525878906
1694673234379311600,6.9323115234375,-1.256250023841858,28.70625114440918,-39.375
1694673234399316500,6.95231640625,0.9000000357627869,27.525001525878906,-40.57500076293945
1694673234419327700,6.97232763671875,1.9312500953674316,26.100000381469727,-40.91250228881836
1694673234439332400,6.992332275390625,2.5500001907348633,25.031251907348633,-40.837501525878906
1694673234459331600,7.01233154296875,3.7875001430511475,24.168750762939453,-40.931251525878906
1694673234479326500,7.032326416015625,3.9937500953674316,23.53125,-41.04375076293945
1694673234499329300,7.052329345703125,4.181250095367432,23.34375,-41.868751525878906
1694673234519327500,7.072327392578125,4.40625,23.17500114440918,-41.26875305175781
1694673234539315000,7.09231494140625,3.7875001430511475,23.53125,-41.26875305175781
1694673234559315200,7.112315185546875,4.106250286102295,23.793750762939453,-41.23125076293945
1694673234579316200,7.132316162109375,3.281250238418579,24.712501525878906,-40.125
1694673234599324700,7.15232470703125,2.043750047683716,25.762500762939453,-40.40625
1694673234619331300,7.172331298828125,1.631250023841858,26.850000381469727,-39.375
1694673234639331600,7.19233154296875,0.5062500238418579,28.181251525878906,-39.243751525878906
1694673234659328800,7.212328857421875,-0.8062500357627869,29.887500762939453,-38.41875076293945
1694673234679320800,7.23232080078125,-1.3125,31.14375114440918,-37.57500076293945
1694673234699321900,7.25232177734375,-2.8687500953674316,32.118751525878906,-37.16250228881836
1694673234719326500,7.272326416015625,-3.0375001430511475,33.48750305175781,-35.51250076293945
1694673234739325700,7.29232568359375,-3.656250238418579,34.650001525878906,-34.98750305175781
1694673234759332400,7.312332275390625,-5.493750095367432,36.1875,-33.97500228881836
1694673234779333400,7.33233349609375,-5.90625,36.91875076293945,-33.13125228881836
1694673234799330000,7.352330078125,-6.712500095367432,37.72500228881836,-32.025001525878906
1694673234819334400,7.37233447265625,-7.631250381469727,38.36250305175781,-31.70625114440918
1694673234839333600,7.392333740234375,-7.518750190734863,38.98125076293945,-31.181251525878906
1694673234859340000,7.412340087890625,-8.231250762939453,38.92500305175781,-30.281251907348633
1694673234879331300,7.432331298828125,-8.4375,39.35625076293945,-30.281251907348633
1694673234899348200,7.45234814453125,-9.168750762939453,39.375,-29.981250762939453
1694673234919339000,7.472339111328125,-8.831250190734863,39.73125076293945,-29.475000381469727
1694673234939319800,7.49231982421875,-8.325000762939453,40.01250076293945,-29.45625114440918
1694673234959315500,7.5123154296875,-8.737500190734863,39.5625,-29.26875114440918
1694673234979305000,7.532304931640625,-9.262500762939453,39.375,-30.093751907348633
1694673234999305500,7.552305419921875,-9.487500190734863,39.28125,-30.093751907348633
1694673235019302000,7.572302001953125,-9.375,39.1875,-30.39375114440918
1694673235039314200,7.592314208984375,-9.168750762939453,38.64375305175781,-30.525001525878906
1694673235059320300,7.6123203125,-8.96250057220459,38.90625,-30.618751525878906
1694673235079332000,7.63233203125,-8.662500381469727,38.00625228881836,-31.125001907348633
1694673235099337200,7.652337158203125,-8.887500762939453,37.91250228881836,-31.23750114440918
1694673235119347700,7.67234765625,-8.362500190734863,37.462501525878906,-31.856250762939453
1694673235139339800,7.69233984375,-8.268750190734863,37.10625076293945,-32.15625
1694673235159340300,7.71234033203125,-7.968750476837158,36.65625,-32.587501525878906
1694673235179336400,7.73233642578125,-8.081250190734863,35.92500305175781,-33.30000305175781
1694673235199332900,7.752332763671875,-7.575000286102295,34.837501525878906,-33.9375
1694673235219335200,7.772335205078125,-6.975000381469727,33.48750305175781,-35.28750228881836
1694673235239331600,7.79233154296875,-6.693750381469727,32.66250228881836,-36
1694673235259335700,7.812335693359375,-5.15625,31.031251907348633,-37.23750305175781
1694673235279317200,7.832317138671875,-4.762500286102295,29.943750381469727,-38.26875305175781
1694673235299320800,7.85232080078125,-4.256250381469727,28.593751907348633,-39.20625305175781
1694673235319319300,7.8723193359375,-2.8125,27.881250381469727,-39.91875076293945
1694673235339320600,7.892320556640625,-2.3062500953674316,26.625001907348633,-40.44375228881836
1694673235359312400,7.9123125,-0.5625,24.58125114440918,-40.98750305175781
1694673235379309000,7.93230908203125,-0.375,23.418750762939453,-41.8125
1694673235399325400,7.952325439453125,-0.16875000298023224,22.42500114440918,-41.94375228881836
1694673235419334100,7.972334228515625,0.6375000476837158,21.881250381469727,-42.26250076293945
1694673235439336400,7.99233642578125,0.6375000476837158,21.543750762939453,-41.962501525878906
1694673235459345400,8.012345458984376,1.3687500953674316,21.28125,-41.868751525878906
1694673235479347500,8.032347412109376,1.162500023841858,21.11250114440918,-41.775001525878906
1694673235499345000,8.052344970703125,0.4312500059604645,22.162500381469727,-41.85000228881836
1694673235519349200,8.072349365234375,-0.581250011920929,23.043750762939453,-41.73750305175781
1694673235539341800,8.092341796875,-0.8812500238418579,23.868751525878906,-41.41875076293945
1694673235559338500,8.11233837890625,-2.2125000953674316,25.293750762939453,-40.59375
1694673235579331800,8.132331787109376,-2.9250001907348633,26.531251907348633,-40.16250228881836
1694673235599326500,8.152326416015624,-3.750000238418579,27.431251525878906,-39.54375076293945
1694673235619318800,8.17231884765625,-3.825000047683716,28.968751907348633,-38.587501525878906
1694673235639320000,8.192320068359376,-5.362500190734863,30.86250114440918,-37.14375305175781
1694673235659329000,8.2123291015625,-4.725000381469727,32.212501525878906,-36.39375305175781
1694673235679320800,8.23232080078125,-5.625,33.84375,-35.13750076293945
1694673235699329000,8.2523291015625,-6.037500381469727,34.650001525878906,-34.72500228881836
1694673235719331300,8.272331298828124,-6.825000286102295,35.92500305175781,-32.98125076293945
1694673235739329300,8.292329345703125,-7.031250476837158,36.5625,-32.56875228881836
1694673235759334400,8.31233447265625,-7.443750381469727,37.368751525878906,-32.13750076293945
1694673235779323100,8.3323232421875,-8.362500190734863,37.743751525878906,-31.23750114440918
1694673235799321600,8.352321533203124,-8.231250762939453,38.47500228881836,-30.618751525878906
1694673235819327700,8.37232763671875,-9.90000057220459,38.56875228881836,-30.225000381469727
1694673235839328500,8.39232861328125,-9.675000190734863,39.28125,-30.000001907348633
1694673235859337500,8.41233740234375,-9.46875,39.01875305175781,-29.606250762939453
1694673235879341300,8.43234130859375,-9.675000190734863,39.20625305175781,-29.006250381469727
1694673235899349500,8.452349609375,-10.18125057220459,39.20625305175781,-29.193750381469727
1694673235919351300,8.472351318359374,-10.106250762939453,38.56875228881836,-29.92500114440918
1694673235939331000,8.4923310546875,-10.631250381469727,38.64375305175781,-30.431251525878906
1694673235959320600,8.512320556640624,-10.21875,38.38125228881836,-30.243751525878906
1694673235979308500,8.53230859375,-10.3125,38.025001525878906,-30.656251907348633
1694673235999306800,8.552306640625,-10.237500190734863,37.556251525878906,-31.462501525878906
1694673236019302100,8.57230224609375,-9.825000762939453,37.462501525878906,-31.762500762939453
1694673236039314000,8.59231396484375,-10.03125,36.91875076293945,-32.08125305175781
1694673236059319600,8.612319580078125,-10.143750190734863,36.65625,-31.89375114440918
1694673236079331300,8.632331298828126,-10.050000190734863,36.28125,-32.625
1694673236099336200,8.652336181640624,-9.33750057220459,35.73750305175781,-33.01875305175781
1694673236119346700,8.6723466796875,-9.24375057220459,35.118751525878906,-33.431251525878906
1694673236139339300,8.69233935546875,-8.625,33.76875305175781,-33.97500228881836
1694673236159339800,8.71233984375,-8.11875057220459,33.13125228881836,-34.89375305175781
1694673236179336200,8.732336181640624,-7.425000190734863,31.593751907348633,-36.13125228881836
1694673236199332900,8.752332763671875,-7.031250476837158,30.506250381469727,-37.48125076293945
1694673236219341000,8.772341064453125,-6.225000381469727,29.325000762939453,-38.306251525878906
1694673236239336000,8.7923359375,-4.78125,27.356250762939453,-39.243751525878906
1694673236259346000,8.812345947265625,-3.450000047683716,26.118751525878906,-39.67500305175781
1694673236279323600,8.83232373046875,-2.231250047683716,24.39375114440918,-40.81875228881836
1694673236299325700,8.85232568359375,-1.5187500715255737,23.775001525878906,-41.32500076293945
1694673236319327700,8.87232763671875,-0.581250011920929,22.96875,-41.73750305175781
1694673236339320800,8.89232080078125,-0.581250011920929,22.162500381469727,-41.75625228881836
1694673236359324700,8.91232470703125,0.01875000074505806,21.431251525878906,-42.375
1694673236379317800,8.93231787109375,0.6375000476837158,21.09375,-41.98125076293945
1694673236399319800,8.95231982421875,0.956250011920929,21.28125,-41.868751525878906
1694673236419329000,8.9723291015625,0.4312500059604645,21.806251525878906,-41.962501525878906
1694673236439332000,8.99233203125,0.45000001788139343,22.368751525878906,-41.4375
1694673236459341600,9.012341552734375,0.26250001788139343,23.53125,-40.70625305175781
1694673236479333400,9.03233349609375,-0.35625001788139343,24.318750381469727,-40.89375305175781
1694673236499334000,9.052333984375,-1.3875000476837158,24.67500114440918,-40.29375076293945
1694673236519341300,9.07234130859375,-2.3062500953674316,26.381250381469727,-39.54375076293945
1694673236539335700,9.092335693359376,-3.2250001430511475,27.731250762939453,-38.92500305175781
1694673236559334700,9.112334716796875,-4.856250286102295,29.606250762939453,-37.98750305175781
1694673236579329800,9.132329833984375,-6.412500381469727,30.843751907348633,-37.462501525878906
1694673236599333000,9.1523330078125,-7.518750190734863,32.493751525878906,-35.60625076293945
1694673236619336200,9.172336181640626,-7.087500095367432,33.67500305175781,-34.875
1694673236639333600,9.192333740234375,-6.956250190734863,34.76250076293945,-33.22500228881836
1694673236659328300,9.212328369140625,-7.462500095367432,35.64375305175781,-33.39375305175781
1694673236679323600,9.23232373046875,-7.968750476837158,36.13125228881836,-31.875001907348633
1694673236699330600,9.25233056640625,-7.331250190734863,37.01250076293945,-31.856250762939453
1694673236719332000,9.27233203125,-7.950000286102295,37.743751525878906,-31.537500381469727
1694673236739329300,9.292329345703125,-8.02500057220459,38.400001525878906,-30.093751907348633
1694673236759334400,9.31233447265625,-8.53125,39.375,-29.887500762939453
1694673236779323000,9.332322998046875,-8.737500190734863,39.65625,-29.36250114440918
1694673236799321000,9.352321044921876,-8.512500762939453,39.9375,-28.968751907348633
1694673236819327200,9.3723271484375,-8.625,40.53750228881836,-29.45625114440918
1694673236839328300,9.392328369140625,-7.481250286102295,40.29375076293945,-28.837501525878906
1694673236859328500,9.41232861328125,-7.162500381469727,40.181251525878906,-29.231250762939453
1694673236879328300,9.432328369140626,-6.768750190734863,39.65625,-29.45625114440918
1694673236899339800,9.45233984375,-6.262500286102295,39.11250305175781,-30.356250762939453
1694673236919350800,9.472350830078126,-5.943750381469727,38.73750305175781,-30.67500114440918
1694673236939330600,9.49233056640625,-5.4375,38.025001525878906,-30.787500381469727
1694673236959320600,9.512320556640624,-5.34375,37.38750076293945,-31.61250114440918
1694673236979318500,9.532318603515625,-4.837500095367432,36.95625305175781,-31.61250114440918
1694673236999316700,9.552316650390624,-6.206250190734863,36.5625,-32.45625305175781
1694673237019309300,9.572309326171874,-5.475000381469727,35.75625228881836,-32.868751525878906
1694673237039319300,9.5923193359375,-5.793750286102295,35.681251525878906,-32.66250228881836
1694673237059323100,9.6123232421875,-5.493750095367432,34.76250076293945,-33.69375228881836
1694673237079333600,9.632333740234374,-5.831250190734863,33.50625228881836,-34.743751525878906
1694673237099337500,9.65233740234375,-6.168750286102295,32.04375076293945,-35.8125
1694673237119347500,9.672347412109374,-5.662500381469727,31.031251907348633,-37.33125305175781
1694673237139339300,9.69233935546875,-4.443750381469727,29.962501525878906,-37.76250076293945
1694673237159339500,9.712339599609376,-3.3375000953674316,27.900001525878906,-39.22500228881836
1694673237179335400,9.73233544921875,-2.0812501907348633,26.475000381469727,-39.63750076293945
1694673237199332600,9.75233251953125,-0.956250011920929,25.406251907348633,-40.25625228881836
1694673237219333400,9.77233349609375,0.675000011920929,24.76875114440918,-40.76250076293945
1694673237239330300,9.792330322265625,0.3375000059604645,23.15625,-41.71875
1694673237259334700,9.812334716796874,0.768750011920929,21.993751525878906,-41.55000305175781
1694673237279316000,9.83231591796875,0.8437500596046448,21.543750762939453,-42.056251525878906
1694673237299319300,9.8523193359375,0.8437500596046448,20.73750114440918,-42.58125305175781
1694673237319335400,9.87233544921875,1.1437500715255737,20.475000381469727,-42.39375305175781
1694673237339327000,9.892326904296874,0.6187500357627869,20.36250114440918,-42.91875076293945
1694673237359335000,9.9123349609375,0.6375000476837158,21,-42.375
1694673237379325700,9.93232568359375,-0.5062500238418579,21.356250762939453,-42.39375305175781
1694673237399326000,9.952325927734375,-1.21875,22.59375,-42.26250076293945
1694673237419333000,9.9723330078125,-1.8375000953674316,23.400001525878906,-41.94375228881836
1694673237439335000,9.9923349609375,-2.8500001430511475,24.918750762939453,-41.212501525878906
1694673237459343000,10.012343017578125,-3.356250047683716,25.912500381469727,-40.48125076293945
1694673237479345400,10.032345458984375,-4.275000095367432,27.356250762939453,-39.54375076293945
1694673237499342800,10.0523427734375,-4.762500286102295,28.61250114440918,-38.90625
1694673237519348000,10.072347900390625,-6.412500381469727,30.412500381469727,-37.6875
1694673237539349800,10.092349853515625,-6.693750381469727,31.762500762939453,-36.82500076293945
1694673237559344600,10.1123447265625,-7.406250476837158,32.66250228881836,-35.8125
1694673237579344600,10.1323447265625,-8.11875057220459,34.650001525878906,-34.44375228881836
1694673237599335700,10.152335693359374,-8.925000190734863,35.36250305175781,-33.73125076293945
1694673237619325000,10.172324951171875,-9.731250762939453,36.375,-32.19375228881836
1694673237639312600,10.192312744140626,-9.9375,36.82500076293945,-32.08125305175781
1694673237659312400,10.2123125,-10.237500190734863,37.38750076293945,-31.387500762939453
1694673237679307300,10.232307373046876,-10.125,37.556251525878906,-31.462501525878906
1694673237699318500,10.252318603515626,-10.631250381469727,37.91250228881836,-30.95625114440918
1694673237719324000,10.272323974609375,-10.631250381469727,38.36250305175781,-30.750001907348633
1694673237739324000,10.292323974609374,-10.83750057220459,38.38125228881836,-30.356250762939453
1694673237759331000,10.3123310546875,-11.043750762939453,38.625,-30.750001907348633
1694673237779321600,10.332321533203125,-10.425000190734863,38.19375228881836,-30.656251907348633
1694673237799321000,10.352321044921876,-11.15625,38.00625228881836,-31.275001525878906
1694673237819328000,10.372327880859375,-10.537500381469727,37.91250228881836,-30.86250114440918
1694673237839329300,10.392329345703125,-10.74375057220459,37.743751525878906,-31.162500381469727
1694673237859330800,10.412330810546875,-10.96875,37.275001525878906,-31.89375114440918
1694673237879334700,10.432334716796875,-10.55625057220459,37.275001525878906,-31.781251907348633
1694673237899345000,10.452344970703125,-10.331250190734863,37.53750228881836,-31.98750114440918
1694673237919348200,10.47234814453125,-10.55625057220459,36.993751525878906,-32.400001525878906
1694673237939330600,10.49233056640625,-10.46250057220459,36.09375,-32.92500305175781
1694673237959320300,10.5123203125,-10.27500057220459,35.90625,-33.13125228881836
1694673237979309300,10.532309326171875,-10.800000190734863,35.625,-33.76875305175781
1694673237999307800,10.552307861328124,-11.006250381469727,34.743751525878906,-33.88125228881836
1694673238019310600,10.572310546875,-10.40625,33.82500076293945,-34.81875228881836
1694673238039320600,10.592320556640624,-10.21875,32.38125228881836,-36.16875076293945
1694673238059324700,10.61232470703125,-9,31.031251907348633,-36.993751525878906
1694673238079335000,10.6323349609375,-7.668750286102295,29.662500381469727,-38.32500076293945
1694673238099338800,10.6523388671875,-7.162500381469727,28.593751907348633,-38.85000228881836
1694673238119348200,10.67234814453125,-6.168750286102295,26.700000762939453,-40.5
1694673238139351000,10.69235107421875,-5.34375,25.781251907348633,-41.32500076293945
1694673238159348500,10.712348388671876,-3.9000000953674316,24.375001907348633,-41.75625228881836
1694673238179335200,10.732335205078124,-3.281250238418579,23.212501525878906,-41.868751525878906
1694673238199331800,10.752331787109375,-2.0625,22.481250762939453,-42.78750228881836
1694673238219332400,10.772332275390625,-1.125,21.168750762939453,-42.91875076293945
1694673238239329000,10.7923291015625,-0.9375000596046448,20.45625114440918,-43.03125
1694673238259326000,10.812325927734374,-0.30000001192092896,20.36250114440918,-42.618751525878906
1694673238279309600,10.8323095703125,-0.3187500238418579,20.17500114440918,-43.23750305175781
1694673238299314400,10.852314453125,0,20.53125,-43.21875
1694673238319315200,10.872315185546874,0.01875000074505806,21.431251525878906,-42.58125305175781
1694673238339313200,10.892313232421875,-0.28125,21.975000381469727,-42.5625
1694673238359314000,10.91231396484375,-0.9937500357627869,23.493751525878906,-41.83125305175781
1694673238379310600,10.932310546875,-1.6125000715255737,24.11250114440918,-41.41875076293945
1694673238399315700,10.952315673828124,-2.625,25.818750381469727,-40.6875
1694673238419327000,10.972326904296875,-3.1312501430511475,26.981250762939453,-39.84375
1694673238439331600,10.99233154296875,-4.368750095367432,29.043750762939453,-38.90625
1694673238459342000,11.012342041015625,-4.537500381469727,30.48750114440918,-38.04375076293945
1694673238479346000,11.032345947265625,-5.15625,31.837501525878906,-37.3125
1694673238499344000,11.05234375,-6.581250190734863,33.28125,-35.88750076293945
1694673238519341800,11.072341796875,-6.243750095367432,34.81875228881836,-35.025001525878906
1694673238539339000,11.092339111328124,-7.462500095367432,35.8125,-33.900001525878906
1694673238559336700,11.112336669921875,-7.031250476837158,36.54375076293945,-33.07500076293945
1694673238579331000,11.1323310546875,-7.556250095367432,37.275001525878906,-32.34375
1694673238599326200,11.152326171875,-7.631250381469727,37.63125228881836,-31.931251525878906
1694673238619320600,11.172320556640624,-8.456250190734863,38.28750228881836,-31.125001907348633
1694673238639322000,11.192322021484374,-8.86875057220459,38.38125228881836,-30.412500381469727
1694673238659318800,11.21231884765625,-9.487500190734863,38.8125,-30.618751525878906
1694673238679317000,11.23231689453125,-9.693750381469727,39.16875076293945,-30.806251525878906
1694673238699326500,11.252326416015626,-10.012500762939453,38.8125,-30.637500762939453
1694673238719329800,11.272329833984376,-9.80625057220459,38.8125,-30.825000762939453
1694673238739328300,11.292328369140625,-9.80625057220459,38.45625305175781,-30.937501907348633
1694673238759334100,11.312334228515626,-10.237500190734863,38.08125305175781,-31.256250381469727
1694673238779323400,11.332323486328125,-9.80625057220459,37.66875076293945,-30.76875114440918
1694673238799322000,11.352322021484374,-10.331250190734863,37.72500228881836,-31.575000762939453
1694673238819328300,11.372328369140625,-10.668750762939453,37.44375228881836,-31.875001907348633
1694673238839329800,11.392329833984375,-10.443750381469727,37.275001525878906,-31.89375114440918
1694673238859330600,11.41233056640625,-10.46250057220459,36.65625,-32.212501525878906
1694673238879334400,11.43233447265625,-10.143750190734863,36.54375076293945,-32.51250076293945
1694673238899344600,11.4523447265625,-10.36875057220459,35.55000305175781,-33.35625076293945
1694673238919340000,11.472340087890625,-10.893750190734863,34.91250228881836,-33.67500305175781
1694673238939321000,11.492321044921875,-10.912500381469727,34.556251525878906,-33.993751525878906
1694673238959313200,11.512313232421874,-10.08750057220459,33.30000305175781,-34.72500228881836
1694673238979303700,11.5323037109375,-10.21875,32.56875228881836,-35.64375305175781
1694673238999304700,11.5523046875,-9.206250190734863,31.575000762939453,-36.76875305175781
1694673239019308800,11.572308837890626,-8.58750057220459,30.562501907348633,-37.70625305175781
1694673239039319800,11.59231982421875,-7.575000286102295,28.687501907348633,-38.85000228881836
1694673239059324400,11.612324462890625,-6.975000381469727,27.95625114440918,-39.46875
1694673239079335200,11.632335205078125,-6.056250095367432,26.793750762939453,-40.087501525878906
1694673239099339000,11.652339111328125,-4.518750190734863,25.012500762939453,-40.931251525878906
1694673239119348700,11.6723486328125,-3.8062500953674316,23.83125114440918,-41.868751525878906
1694673239139340300,11.69234033203125,-2.34375,22.59375,-41.88750076293945
1694673239159340500,11.712340576171876,-1.7437500953674316,22.23750114440918,-42.28125
1694673239179331600,11.73233154296875,-1.537500023841858,21.431251525878906,-42.50625228881836
1694673239199339000,11.752339111328125,-0.7125000357627869,21,-42.39375305175781
1694673239219338200,11.772338134765626,-0.6187500357627869,20.71875,-42.806251525878906
1694673239239333600,11.792333740234374,0.4125000238418579,20.64375114440918,-42.50625228881836
1694673239259330600,11.81233056640625,-0.5062500238418579,21.168750762939453,-42.69375228881836
1694673239279312000,11.832311767578124,-0.28125,21.806251525878906,-42.375
1694673239299316200,11.852316162109375,-0.48750001192092896,22.51875114440918,-41.75625228881836
1694673239319316200,11.872316162109374,-1.2937500476837158,24.225000381469727,-41.212501525878906
1694673239339312400,11.8923125,-1.4812500476837158,25.312501907348633,-40.275001525878906
1694673239359324400,11.912324462890625,-3.4312500953674316,27.168750762939453,-39.84375
1694673239379318800,11.93231884765625,-3.4125001430511475,28.368751525878906,-38.60625076293945
1694673239399321600,11.952321533203126,-4.556250095367432,29.418750762939453,-38.28750228881836
1694673239419331000,11.9723310546875,-5.568750381469727,31.668750762939453,-36.91875076293945
1694673239439334100,11.992334228515626,-6.056250095367432,32.75625228881836,-35.88750076293945
1694673239459343600,12.012343505859375,-6.562500476837158,34.556251525878906,-34.931251525878906
1694673239479346400,12.032346435546875,-6.750000476837158,35.8125,-34.10625076293945
1694673239499344100,12.05234423828125,-6.618750095367432,36.30000305175781,-32.66250228881836
1694673239519341600,12.072341552734375,-7.125000476837158,36.91875076293945,-32.34375
1694673239539350000,12.09235009765625,-7.950000286102295,37.743751525878906,-31.42500114440918
1694673239559345200,12.11234521484375,-8.043750762939453,38.36250305175781,-31.42500114440918
1694673239579329300,12.132329345703125,-8.456250190734863,38.64375305175781,-30.918750762939453
1694673239599324200,12.15232421875,-9.375,39.09375,-30.20625114440918
1694673239619316500,12.17231640625,-9.693750381469727,39.45000076293945,-30.20625114440918
1694673239639329300,12.192329345703126,-9.787500381469727,39.63750076293945,-29.887500762939453
1694673239659324200,12.21232421875,-9.90000057220459,39.431251525878906,-30.618751525878906
1694673239679324000,12.232323974609375,-10.106250762939453,39.16875076293945,-30.918750762939453
1694673239699331300,12.252331298828125,-10.125,38.71875,-30.937501907348633
1694673239719333000,12.2723330078125,-10.331250190734863,38.08125305175781,-31.462501525878906
1694673239739330300,12.292330322265625,-9.71250057220459,38.34375,-31.950000762939453
1694673239759335200,12.312335205078124,-10.237500190734863,37.89375305175781,-31.668750762939453
1694673239779323400,12.332323486328125,-10.03125,37.181251525878906,-32.19375228881836
1694673239799321900,12.35232177734375,-10.256250381469727,37.25625228881836,-32.587501525878906
1694673239819328000,12.372327880859375,-10.143750190734863,36.46875,-32.41875076293945
1694673239839321000,12.392321044921875,-10.36875057220459,36.1875,-32.625
1694673239859323400,12.412323486328125,-10.27500057220459,36,-33.13125228881836
1694673239879328800,12.432328857421876,-9.450000762939453,35.00625228881836,-34.06875228881836
1694673239899340300,12.45234033203125,-9.787500381469727,34.181251525878906,-34.98750305175781
1694673239919348700,12.4723486328125,-9.28125,32.92500305175781,-35.625
1694673239939328000,12.492327880859374,-8.887500762939453,32.025001525878906,-36.35625076293945
1694673239959319300,12.5123193359375,-7.350000381469727,30.318750381469727,-37.6875
1694673239979312000,12.53231201171875,-7.256250381469727,29.137500762939453,-38.53125
1694673239999315200,12.552315185546876,-6.450000286102295,27.95625114440918,-39.65625
1694673240019316500,12.57231640625,-5.943750381469727,26.006250381469727,-40.01250076293945
1694673240039325200,12.5923251953125,-5.043750286102295,24.825000762939453,-41.25
1694673240059327700,12.61232763671875,-3.8062500953674316,23.400001525878906,-41.47500228881836
1694673240079337000,12.6323369140625,-2.6625001430511475,22.33125114440918,-41.98125076293945
1694673240099339800,12.65233984375,-1.4250000715255737,20.90625,-42.11250305175781
1694673240119348700,12.6723486328125,-0.7125000357627869,20.287500381469727,-42.525001525878906
1694673240139351300,12.692351318359375,0.11250000447034836,19.762500762939453,-42.525001525878906
1694673240159348500,12.712348388671876,-0.09375,19.668750762939453,-42.431251525878906
1694673240179335200,12.732335205078124,-0.1875,19.856250762939453,-42.22500228881836
1694673240199334100,12.752334228515625,-0.7125000357627869,20.45625114440918,-42.618751525878906
1694673240219334100,12.772334228515625,-1.21875,21.09375,-42
1694673240239322400,12.792322265625,-1.5187500715255737,21.993751525878906,-41.47500228881836
1694673240259320800,12.81232080078125,-2.4375,22.80000114440918,-41.0625
1694673240279304700,12.8323046875,-3.5812501907348633,24.318750381469727,-40.72500228881836
1694673240299307800,12.852307861328125,-3.7687501907348633,25.481250762939453,-40.10625076293945
1694673240319313000,12.87231298828125,-4.893750190734863,26.64375114440918,-39.67500305175781
1694673240339311000,12.89231103515625,-5.90625,28.61250114440918,-38.118751525878906
1694673240359324000,12.912323974609375,-6.412500381469727,29.606250762939453,-37.70625305175781
1694673240379318800,12.93231884765625,-7.837500095367432,31.593751907348633,-35.85000228881836
1694673240399322000,12.952322021484376,-7.593750476837158,33.31875228881836,-34.98750305175781
1694673240419331600,12.97233154296875,-8.831250190734863,34.57500076293945,-33.65625
1694673240439335000,12.9923349609375,-9.33750057220459,35.56875228881836,-33.03750228881836
1694673240459344100,13.01234423828125,-9.43125057220459,35.92500305175781,-32.625
1694673240479347000,13.032346923828126,-10.350000381469727,36.5625,-32.118751525878906
1694673240499344400,13.052344482421875,-10.443750381469727,37.20000076293945,-31.387500762939453
1694673240519342300,13.07234228515625,-11.268750190734863,37.837501525878906,-30.562501907348633
1694673240539343600,13.092343505859375,-11.568750381469727,37.931251525878906,-30.168750762939453
1694673240559340000,13.112340087890624,-11.86875057220459,38.56875228881836,-29.943750381469727
1694673240579333400,13.13233349609375,-12.187500953674316,38.56875228881836,-29.64375114440918
1694673240599327500,13.152327392578124,-12.393750190734863,38.118751525878906,-30.281251907348633
1694673240619319600,13.172319580078126,-12.80625057220459,38.47500228881836,-29.962501525878906
1694673240639335700,13.192335693359375,-12.825000762939453,38.08125305175781,-30.787500381469727
1694673240659329300,13.212329345703125,-12.393750190734863,37.837501525878906,-30.693750381469727
1694673240679327700,13.23232763671875,-12.61875057220459,37.556251525878906,-31.106250762939453
1694673240699333600,13.252333740234375,-12.61875057220459,37.275001525878906,-31.312501907348633
1694673240719334400,13.27233447265625,-12.112500190734863,37.087501525878906,-32.118751525878906
1694673240739330800,13.292330810546876,-12.112500190734863,37.087501525878906,-31.818750381469727
1694673240759335200,13.312335205078124,-11.49375057220459,37.181251525878906,-32.118751525878906
1694673240779334400,13.33233447265625,-11.90625,36.63750076293945,-32.23125076293945
1694673240799330000,13.352330078125,-11.606250762939453,36.431251525878906,-33.13125228881836
1694673240819333600,13.372333740234374,-11.418750762939453,36.35625076293945,-33.03750228881836
1694673240839325700,13.39232568359375,-10.59375,35.17500305175781,-34.06875228881836
1694673240859336000,13.4123359375,-10.08750057220459,34.53750228881836,-34.78125
1694673240879338000,13.432337890625,-9.600000381469727,33.1875,-36.337501525878906
1694673240899350000,13.45235009765625,-8.043750762939453,32.28750228881836,-36.9375
1694673240919344000,13.47234423828125,-7.237500190734863,31.106250762939453,-37.96875
1694673240939324400,13.492324462890625,-5.606250286102295,29.381250381469727,-39.41250228881836
1694673240959316000,13.51231591796875,-5.006250381469727,28.312501907348633,-40.14375305175781
1694673240979306800,13.532306640625,-2.9437501430511475,26.418750762939453,-41.36250305175781
1694673240999306000,13.552305908203126,-3.262500047683716,25.781251907348633,-41.70000076293945
1694673241019309300,13.572309326171874,-1.1062500476837158,24.01875114440918,-42.01875305175781
1694673241039319800,13.59231982421875,-0.8062500357627869,22.575000762939453,-42.86250305175781
1694673241059324400,13.612324462890625,-0.5062500238418579,21.618751525878906,-42.88125228881836
1694673241079323400,13.632323486328126,0.20625001192092896,21.431251525878906,-42.97500228881836
1694673241099329800,13.652329833984375,-0.1875,21.356250762939453,-42.48750305175781
1694673241119341800,13.672341796875,0.4125000238418579,21.693750381469727,-42.86250305175781
1694673241139335400,13.69233544921875,0.22500000894069672,21.881250381469727,-42.5625
1694673241159337200,13.712337158203125,0.01875000074505806,22.14375114440918,-42.46875
1694673241179328000,13.732327880859375,0.24375000596046448,22.61250114440918,-41.73750305175781
1694673241199341000,13.752341064453125,-0.7875000238418579,24.11250114440918,-41.60625076293945
1694673241219340800,13.7723408203125,-0.768750011920929,25.106250762939453,-41.28750228881836
1694673241239335700,13.792335693359375,-2.0062501430511475,26.343751907348633,-41.0625
1694673241259332400,13.812332275390625,-3.1312501430511475,27.618751525878906,-39.73125076293945
1694673241279314200,13.832314208984375,-4.050000190734863,29.043750762939453,-38.98125076293945
1694673241299318300,13.852318359375,-4.950000286102295,30.787500381469727,-37.23750305175781
1694673241319318000,13.872318115234375,-5.775000095367432,32.00625228881836,-37.3125
1694673241339320300,13.8923203125,-6.056250095367432,33.91875076293945,-35.868751525878906
1694673241359319000,13.912319091796874,-6.543750286102295,34.837501525878906,-34.72500228881836
1694673241379314200,13.932314208984375,-6.750000476837158,35.8125,-34.20000076293945
1694673241399317800,13.95231787109375,-6.618750095367432,37.275001525878906,-32.73750305175781
1694673241419328300,13.972328369140625,-6.506250381469727,37.462501525878906,-32.13750076293945
1694673241439332000,13.99233203125,-7.950000286102295,38.53125,-31.818750381469727
1694673241459342000,14.012342041015625,-8.568750381469727,38.88750076293945,-31.312501907348633
1694673241479345400,14.032345458984375,-8.550000190734863,39.618751525878906,-30.881250381469727
1694673241499348500,14.052348388671875,-8.96250057220459,39.900001525878906,-30.187501907348633
1694673241519334100,14.072334228515626,-9.787500381469727,39.712501525878906,-30.281251907348633
1694673241539337500,14.09233740234375,-9.375,39.712501525878906,-30.281251907348633
1694673241559335700,14.112335693359375,-9.375,39.712501525878906,-30.58125114440918
1694673241579322600,14.132322509765626,-9.393750190734863,38.88750076293945,-31.312501907348633
1694673241599320300,14.1523203125,-9.506250381469727,38.88750076293945,-31.312501907348633
1694673241619314200,14.172314208984375,-9.393750190734863,38.4375,-31.631250381469727
1694673241639337200,14.192337158203125,-9.300000190734863,38.26875305175781,-31.837501525878906
1694673241659331000,14.2123310546875,-9.206250190734863,38.15625,-32.34375
1694673241679329500,14.23232958984375,-8.981250762939453,37.72500228881836,-32.0625
1694673241699335400,14.25233544921875,-8.175000190734863,37.72500228881836,-32.34375
1694673241719336200,14.272336181640625,-8.475000381469727,37.61250305175781,-32.45625305175781
1694673241739332000,14.29233203125,-7.875000476837158,36.993751525878906,-32.962501525878906
1694673241759336400,14.31233642578125,-8.71875,36.618751525878906,-33.50625228881836
1694673241779324200,14.33232421875,-8.006250381469727,35.90625,-34.21875
1694673241799322000,14.352322021484374,-7.818750381469727,34.89375305175781,-35.45625305175781
1694673241819327700,14.37232763671875,-6.787500381469727,34.087501525878906,-36.26250076293945
1694673241839320800,14.39232080078125,-6.900000095367432,33.525001525878906,-36.78750228881836
1694673241859332600,14.41233251953125,-6.093750476837158,32.00625228881836,-38.025001525878906
1694673241879335700,14.432335693359375,-5.175000190734863,30.731250762939453,-38.868751525878906
1694673241899345400,14.452345458984375,-4.368750095367432,29.025001525878906,-40.10625076293945
1694673241919340800,14.4723408203125,-2.9250001907348633,27.95625114440918,-40.51875305175781
1694673241939321300,14.4923212890625,-1.3875000476837158,26.606250762939453,-41.34375
1694673241959313400,14.5123134765625,-1.6125000715255737,25.443750381469727,-41.98125076293945
1694673241979303400,14.532303466796876,-0.675000011920929,24.375001907348633,-42
1694673241999304700,14.5523046875,0.01875000074505806,23.475000381469727,-42.618751525878906
1694673242019308800,14.572308837890626,1.5750000476837158,22.856250762939453,-42.618751525878906
1694673242039320000,14.592320068359374,1.6875001192092896,22.6875,-42.618751525878906
1694673242059324400,14.612324462890625,1.8937500715255737,22.068750381469727,-42.431251525878906
1694673242079324000,14.632323974609376,1.8750001192092896,21.975000381469727,-42.54375076293945
1694673242099330600,14.65233056640625,1.9875000715255737,21.881250381469727,-42.54375076293945
1694673242119342600,14.672342529296875,1.6875001192092896,22.96875,-42.20625305175781
1694673242139347500,14.692347412109376,0.13125000894069672,23.231250762939453,-41.625
1694673242159346400,14.712346435546875,-0.05625000223517418,24.30000114440918,-41.587501525878906
1694673242179334000,14.732333984375,-2.0250000953674316,26.17500114440918,-41.26875305175781
1694673242199345700,14.752345703125,-2.625,26.981250762939453,-40.44375228881836
1694673242219343600,14.772343505859375,-3.637500047683716,28.968751907348633,-39.09375
1694673242239330000,14.792330078125,-4.556250095367432,30.20625114440918,-38.75625228881836
1694673242259326700,14.81232666015625,-5.362500190734863,32.36250305175781,-37.40625
1694673242279308800,14.832308837890626,-5.643750190734863,33.54375076293945,-36.46875
1694673242299320300,14.8523203125,-5.325000286102295,34.556251525878906,-35.32500076293945
1694673242319308000,14.87230810546875,-5.493750095367432,35.73750305175781,-34.38750076293945
1694673242339313400,14.8923134765625,-5.90625,36.712501525878906,-33.54375076293945
1694673242359325700,14.91232568359375,-6.918750286102295,37.63125228881836,-32.4375
1694673242379319600,14.932319580078126,-7.537500381469727,38.08125305175781,-31.725000381469727
1694673242399322400,14.952322265625,-8.756250381469727,39,-30.506250381469727
1694673242419331600,14.97233154296875,-8.756250381469727,39.16875076293945,-30.806251525878906
1694673242439334700,14.992334716796876,-9.581250190734863,39.712501525878906,-30.48750114440918
1694673242459344000,15.01234375,-9.787500381469727,40.16250228881836,-29.887500762939453
1694673242479346400,15.032346435546875,-9.99375057220459,40.16250228881836,-30.075000762939453
1694673242499345000,15.052344970703125,-9.375,39.78750228881836,-30.787500381469727
1694673242519343400,15.07234326171875,-10.106250762939453,39.618751525878906,-30.806251525878906
1694673242539344100,15.09234423828125,-10.012500762939453,39.243751525878906,-31.125001907348633
1694673242559340500,15.112340576171874,-9.393750190734863,39.16875076293945,-31.312501907348633
1694673242579338000,15.132337890625,-10.331250190734863,38.775001525878906,-31.931251525878906
1694673242599331600,15.15233154296875,-9.918750762939453,38.625,-31.443750381469727
1694673242619321900,15.17232177734375,-9.506250381469727,38.34375,-32.04375076293945
1694673242639323100,15.1923232421875,-10.03125,38.34375,-32.15625
1694673242659319300,15.2123193359375,-10.03125,38.23125076293945,-32.26875305175781
1694673242679320000,15.232320068359375,-9.825000762939453,38.25,-32.15625
1694673242699328300,15.252328369140624,-10.46250057220459,37.25625228881836,-32.90625
1694673242719330800,15.272330810546874,-10.387500762939453,36.243751525878906,-34.23750305175781
1694673242739328800,15.292328857421875,-9.675000190734863,35.25,-35.15625
1694673242759334400,15.31233447265625,-9.375,34.25625228881836,-36.09375
1694673242779334400,15.33233447265625,-7.950000286102295,32.88750076293945,-37.21875
1694673242799330300,15.352330322265624,-7.556250095367432,31.631250381469727,-37.76250076293945
1694673242819334100,15.372334228515625,-7.256250381469727,30.20625114440918,-38.70000076293945
1694673242839325400,15.392325439453124,-6.656250476837158,28.931251525878906,-39.337501525878906
1694673242859335400,15.41233544921875,-5.943750381469727,27.67500114440918,-40.462501525878906
1694673242879337700,15.432337646484376,-5.231250286102295,26.231250762939453,-41.41875076293945
1694673242899340300,15.45234033203125,-4.631250381469727,24.712501525878906,-41.85000228881836
1694673242919325200,15.4723251953125,-3.8062500953674316,23.287500381469727,-42.28125
1694673242939309600,15.4923095703125,-2.2687501907348633,22.40625,-42.375
1694673242959306000,15.512305908203125,-1.2375000715255737,21.525001525878906,-42.806251525878906
1694673242979298600,15.532298583984375,-1.125,20.90625,-42.712501525878906
1694673242999300600,15.552300537109375,-1.03125,20.71875,-43.125
1694673243019306500,15.572306396484375,-1.2375000715255737,20.71875,-43.125
1694673243039318500,15.592318603515626,-1.2375000715255737,21.356250762939453,-42.50625228881836
1694673243059324200,15.61232421875,-2.043750047683716,22.42500114440918,-41.98125076293945
1694673243079324200,15.63232421875,-2.7750000953674316,23.568750381469727,-42.16875076293945
1694673243099319600,15.652319580078125,-3.6937501430511475,24.731250762939453,-41.53125
1694673243119334700,15.672334716796875,-3.5812501907348633,25.818750381469727,-41.19375228881836
1694673243139330600,15.69233056640625,-4.59375,26.981250762939453,-40.16250228881836
1694673243159334400,15.71233447265625,-4.78125,28.05000114440918,-39.84375
1694673243179326500,15.732326416015624,-6.225000381469727,29.493751525878906,-38.60625076293945
1694673243199340800,15.7523408203125,-6.412500381469727,31.125001907348633,-37.66875076293945
1694673243219341000,15.772341064453125,-7.218750476837158,32.10000228881836,-37.03125
1694673243239336700,15.792336669921875,-8.21250057220459,33.9375,-34.98750305175781
1694673243259333400,15.81233349609375,-8.943750381469727,35.26875305175781,-34.33125305175781
1694673243279314400,15.832314453125,-9.412500381469727,36.63750076293945,-32.493751525878906
1694673243299324200,15.85232421875,-8.981250762939453,37.275001525878906,-31.968751907348633
1694673243319311000,15.87231103515625,-9.300000190734863,37.72500228881836,-31.968751907348633
1694673243339316000,15.89231591796875,-9.61875057220459,38.08125305175781,-31.650001525878906
1694673243359327000,15.912326904296876,-9.918750762939453,38.4375,-31.33125114440918
1694673243379320600,15.932320556640626,-10.3125,38.98125076293945,-30.731250762939453
1694673243399322600,15.952322509765626,-10.518750190734863,39.712501525878906,-29.906251907348633
1694673243419331800,15.972331787109376,-11.4375,39.806251525878906,-29.606250762939453
1694673243439334700,15.992334716796876,-11.456250190734863,39.54375076293945,-29.92500114440918
1694673243459343600,16.012343505859373,-11.77500057220459,39.16875076293945,-30.243751525878906
1694673243479346200,16.03234619140625,-11.25,38.90625,-30.543750762939453
1694673243499344600,16.0523447265625,-12.093750953674316,39.07500076293945,-30.95625114440918
1694673243519342600,16.072342529296876,-11.268750190734863,38.70000076293945,-31.350000381469727
1694673243539343600,16.092343505859375,-11.793750762939453,38.25,-31.575000762939453
1694673243559332400,16.112332275390624,-11.381250381469727,37.368751525878906,-32.10000228881836
1694673243579320300,16.1323203125,-10.856250762939453,37.72500228881836,-31.575000762939453
1694673243599317500,16.1523173828125,-11.0625,37.81875228881836,-31.275001525878906
1694673243619312000,16.17231201171875,-11.0625,37.91250228881836,-31.275001525878906
1694673243639304700,16.1923046875,-10.875,37.44375228881836,-31.98750114440918
1694673243659306200,16.21230615234375,-10.893750190734863,36.618751525878906,-33.63750076293945
1694673243679311400,16.232311279296876,-9.862500190734863,35.88750076293945,-34.14375305175781
1694673243699323100,16.2523232421875,-9.375,33.46875,-35.212501525878906
1694673243719328300,16.272328369140624,-8.137500762939453,32.56875228881836,-35.92500305175781
1694673243739328000,16.292327880859375,-7.331250190734863,31.125001907348633,-37.06875228881836
1694673243759334700,16.312334716796876,-6,30.48750114440918,-37.875
1694673243779324200,16.33232421875,-6.843750476837158,29.681251525878906,-38.118751525878906
1694673243799334400,16.35233447265625,-7.781250476837158,29.662500381469727,-38.625
1694673243819338200,16.372338134765624,-7.687500476837158,29.64375114440918,-39.22500228881836
1694673243839330300,16.392330322265625,-6.581250190734863,26.250001907348633,-40.81875228881836
1694673243859322000,16.412322021484375,-3.9000000953674316,25.51875114440918,-41.8125
1694673243879327500,16.432327392578124,-1.818750023841858,23.681251525878906,-41.53125
1694673243899339000,16.452339111328126,-0.05625000223517418,23.043750762939453,-41.83125305175781
1694673243919337200,16.472337158203125,0.24375000596046448,22.96875,-41.625
1694673243939321600,16.492321533203125,0.3375000059604645,22.61250114440918,-41.94375228881836
1694673243959315000,16.51231494140625,0.01875000074505806,23.212501525878906,-42.431251525878906
1694673243979305000,16.532304931640624,-1.1062500476837158,22.875,-41.64375305175781
1694673243999305700,16.5523056640625,-1.4250000715255737,24.187501907348633,-42.22500228881836
1694673244019309600,16.5723095703125,-2.6437501907348633,25.631250381469727,-41.38125228881836
1694673244039320300,16.5923203125,-2.7375001907348633,26.512500762939453,-41.15625
1694673244059325000,16.612324951171875,-3.8625001907348633,27.86250114440918,-40.44375228881836
1694673244079324400,16.632324462890626,-4.068750381469727,28.762500762939453,-40.10625076293945
1694673244099330800,16.652330810546875,-5.381250381469727,30.468751907348633,-38.962501525878906
1694673244119342800,16.6723427734375,-6,31.818750381469727,-38.4375
1694673244139347700,16.69234765625,-6.918750286102295,33.337501525878906,-37.59375
1694673244159347000,16.712346923828125,-8.137500762939453,34.70625305175781,-35.868751525878906
1694673244179335000,16.7323349609375,-8.006250381469727,36.31875228881836,-35.00625228881836
1694673244199346700,16.7523466796875,-7.668750286102295,37.76250076293945,-33.84375
1694673244219344100,16.77234423828125,-7.762500286102295,38.681251525878906,-33.01875305175781
1694673244239330300,16.792330322265624,-7.631250381469727,39.48750305175781,-32.587501525878906
1694673244259326500,16.812326416015626,-7.631250381469727,39.69375228881836,-31.687501907348633
1694673244279308300,16.832308349609374,-8.043750762939453,40.125,-31.575000762939453
1694673244299318800,16.85231884765625,-8.643750190734863,40.59375,-31.068750381469727
1694673244319307500,16.8723076171875,-9.05625057220459,41.23125076293945,-30.243751525878906
1694673244339313200,16.892313232421873,-9.24375057220459,41.41875076293945,-29.531251907348633
1694673244359325200,16.9123251953125,-9.881250381469727,41.212501525878906,-30.243751525878906
1694673244379319300,16.9323193359375,-9.356250762939453,40.96875,-29.850000381469727
1694673244399322000,16.952322021484374,-9.356250762939453,40.78125,-30.056251525878906
1694673244419331300,16.972331298828124,-9.5625,40.70625305175781,-29.868751525878906
1694673244439334400,16.99233447265625,-8.850000381469727,39.97500228881836,-30.375001907348633
1694673244459343600,17.012343505859373,-8.550000190734863,39.806251525878906,-30.67500114440918
1694673244479346400,17.032346435546874,-8.043750762939453,39.07500076293945,-30.993751525878906
1694673244499344000,17.05234375,-7.200000286102295,38.73750305175781,-30.881250381469727
1694673244519341000,17.072341064453123,-7.425000190734863,38.26875305175781,-31.70625114440918
1694673244539342600,17.092342529296875,-7.425000190734863,38.10000228881836,-31.42500114440918
1694673244559339500,17.112339599609374,-7.743750095367432,37.38750076293945,-31.537500381469727
1694673244579325200,17.1323251953125,-7.537500381469727,37.03125,-31.650001525878906
1694673244599321300,17.1523212890625,-6.825000286102295,36.5625,-32.36250305175781
1694673244619314400,17.172314453125,-7.031250476837158,35.775001525878906,-32.28750228881836
1694673244639317000,17.19231689453125,-6.937500476837158,34.96875,-32.8125
1694673244659315500,17.2123154296875,-5.71875,33.69375228881836,-33.63750076293945
1694673244679317800,17.23231787109375,-4.800000190734863,32.88750076293945,-34.96875
1694673244699327500,17.252327392578124,-3.7875001430511475,31.350000381469727,-35.90625
1694673244719330800,17.272330810546876,-2.8687500953674316,30.975000381469727,-36.50625228881836
1694673244739329300,17.292329345703124,-1.6125000715255737,30.356250762939453,-37.20000076293945
1694673244759335000,17.3123349609375,-0.28125,28.743751525878906,-37.53750228881836
1694673244779324000,17.332323974609373,0.09375,27.750001907348633,-38.45625305175781
1694673244799334000,17.352333984375,1.9687501192092896,26.681251525878906,-38.66250228881836
1694673244819337500,17.37233740234375,2.4750001430511475,25.781251907348633,-39.50625228881836
1694673244839330300,17.392330322265625,2.981250047683716,24.975000381469727,-39.806251525878906
1694673244859322400,17.412322265625,3.3937501907348633,24.881250381469727,-40.10625076293945
1694673244879327500,17.432327392578124,3.5812501907348633,24.168750762939453,-40.63125228881836
1694673244899338800,17.4523388671875,3.6937501430511475,24.356250762939453,-40.42500305175781
1694673244919336000,17.4723359375,3.3937501907348633,24.187501907348633,-40.125
1694673244939319800,17.49231982421875,3.6937501430511475,24.881250381469727,-40.10625076293945
1694673244959313700,17.512313720703126,2.4562501907348633,25.762500762939453,-39.993751525878906
1694673244979304000,17.532303955078124,1.443750023841858,26.587501525878906,-39.07500076293945
1694673244999305200,17.55230517578125,0.7125000357627869,27.918750762939453,-39.056251525878906
1694673245019309300,17.572309326171876,0.4125000238418579,28.89375114440918,-38.83125305175781
1694673245039320600,17.592320556640626,-1.4250000715255737,30.337501525878906,-37.61250305175781
1694673245059325000,17.612324951171875,-2.0250000953674316,31.42500114440918,-36.88125228881836
1694673245079324400,17.632324462890626,-2.512500047683716,33.31875228881836,-35.41875076293945
1694673245099330800,17.652330810546875,-3.1312501430511475,34.125,-34.80000305175781
1694673245119342800,17.6723427734375,-3.6187500953674316,35.66250228881836,-33.75
1694673245139336400,17.69233642578125,-3.918750047683716,37.03125,-32.19375228881836
1694673245159338200,17.712338134765623,-4.818750381469727,38.47500228881836,-31.368751525878906
1694673245179328500,17.73232861328125,-5.625,39.01875305175781,-30.150001525878906
1694673245199343600,17.752343505859375,-6.037500381469727,39.46875,-29.943750381469727
1694673245219342300,17.77234228515625,-6.656250476837158,40.462501525878906,-28.818750381469727
1694673245239337200,17.792337158203125,-6.637500286102295,41.17500305175781,-28.89375114440918
1694673245259332400,17.812332275390624,-7.368750095367432,41.45625305175781,-28.293750762939453
1694673245279313200,17.832313232421875,-6.843750476837158,41.64375305175781,-27.975000381469727
1694673245299322000,17.852322021484376,-6.843750476837158,41.28750228881836,-28.087501525878906
1694673245319309600,17.8723095703125,-7.368750095367432,41.28750228881836,-28.106250762939453
1694673245339314700,17.892314697265626,-7.556250095367432,41.28750228881836,-27.900001525878906
1694673245359326000,17.912325927734376,-7.350000381469727,41.56875228881836,-27.881250381469727
1694673245379319800,17.93231982421875,-7.575000286102295,41.8125,-28.481250762939453
1694673245399322400,17.952322265625,-7.068750381469727,41.26875305175781,-29.006250381469727
1694673245419331300,17.972331298828124,-7.687500476837158,41.26875305175781,-29.118751525878906
1694673245439334400,17.99233447265625,-7.481250286102295,40.98750305175781,-29.212501525878906
1694673245459343600,18.012343505859373,-6.862500190734863,41.15625,-29.718751907348633
1694673245479335000,18.0323349609375,-6.881250381469727,40.51875305175781,-30.525001525878906
1694673245499340800,18.0523408203125,-6.881250381469727,40.06875228881836,-30.656251907348633
1694673245519329300,18.072329345703125,-7.425000190734863,39.618751525878906,-31.462501525878906
1694673245539333600,18.092333740234373,-6.918750286102295,38.88750076293945,-31.89375114440918
1694673245559333400,18.11233349609375,-6.506250381469727,38.0625,-33.22500228881836
1694673245579322000,18.132322021484374,-6.112500190734863,37.06875228881836,-33.84375
1694673245599319600,18.152319580078125,-5.287500381469727,36.35625076293945,-34.16250228881836
1694673245619314000,18.17231396484375,-5.850000381469727,34.61250305175781,-36.03750228881836
1694673245639319300,18.1923193359375,-5.34375,33.46875,-36.35625076293945
1694673245659317500,18.2123173828125,-4.425000190734863,32.26875305175781,-38.00625228881836
1694673245679319600,18.232319580078126,-3.6187500953674316,30.30000114440918,-38.85000228881836
1694673245699329000,18.2523291015625,-2.606250047683716,29.83125114440918,-39.76875305175781
1694673245719332000,18.27233203125,-1.068750023841858,27.787500381469727,-40.70625305175781
1694673245739330000,18.292330078125,-0.03750000149011612,26.718751907348633,-41.212501525878906
1694673245759335400,18.31233544921875,0.35625001788139343,25.106250762939453,-41.868751525878906
1694673245779324400,18.332324462890625,0.768750011920929,24.48750114440918,-41.681251525878906
1694673245799322600,18.352322509765624,0.65625,24.037500381469727,-41.88750076293945
1694673245819328800,18.372328857421873,0.65625,22.96875,-42.337501525878906
1694673245839321900,18.39232177734375,0.956250011920929,22.96875,-42.41250228881836
1694673245859333600,18.412333740234374,0.03750000149011612,23.493751525878906,-42.11250305175781
1694673245879336700,18.432336669921874,-0.48750001192092896,23.662500381469727,-41.92500305175781
1694673245899346200,18.45234619140625,-0.8812500238418579,24.562501907348633,-41.38125228881836
1694673245919341300,18.47234130859375,-1.2937500476837158,25.537500381469727,-41.56875228881836
1694673245939325700,18.49232568359375,-1.8937500715255737,26.625001907348633,-40.63125228881836
1694673245959317200,18.512317138671875,-3.0187501907348633,28.33125114440918,-39.69375228881836
1694673245979306500,18.532306396484376,-3.543750047683716,29.568750381469727,-39.78750228881836
1694673245999305700,18.5523056640625,-4.331250190734863,31.743751525878906,-38.00625228881836
1694673246019309300,18.572309326171876,-5.568750381469727,32.73750305175781,-36.993751525878906
1694673246039319800,18.59231982421875,-5.943750381469727,34.275001525878906,-35.53125
1694673246059324400,18.612324462890626,-6.768750190734863,35.71875,-34.91250228881836
1694673246079323400,18.632323486328126,-7.687500476837158,36.69375228881836,-34.087501525878906
1694673246099329800,18.652329833984375,-8.0625,37.72500228881836,-32.34375
1694673246119342000,18.672342041015625,-8.662500381469727,38.625,-31.42500114440918
1694673246139347000,18.692346923828126,-9.375,39.35625076293945,-30.600000381469727
1694673246159346200,18.71234619140625,-10.200000762939453,39.375,-29.606250762939453
1694673246179333600,18.732333740234374,-10.18125057220459,39.91875076293945,-29.493751525878906
1694673246199345400,18.752345458984376,-10.59375,40.35000228881836,-29.381250381469727
1694673246219343400,18.77234326171875,-11.943750381469727,40.25625228881836,-29.193750381469727
1694673246239329500,18.79232958984375,-11.53125,40.181251525878906,-28.687501907348633
1694673246259326200,18.812326171875,-12.787500381469727,40.35000228881836,-29.212501525878906
1694673246279309000,18.83230908203125,-11.756250381469727,39.65625,-29.118751525878906
1694673246299317800,18.85231787109375,-12.487500190734863,39.73125076293945,-29.325000762939453
1694673246319307300,18.872307373046876,-12.787500381469727,39.01875305175781,-29.45625114440918
1694673246339313000,18.89231298828125,-13.218750953674316,39,-29.962501525878906
1694673246359325000,18.912324951171875,-13.125000953674316,37.91250228881836,-30.48750114440918
1694673246379319300,18.9323193359375,-13.031250953674316,37.81875228881836,-30.900001525878906
1694673246399322000,18.952322021484374,-13.143750190734863,37.462501525878906,-31.012500762939453
1694673246419331600,18.97233154296875,-13.875000953674316,37.10625076293945,-31.125001907348633
1694673246439334700,18.992334716796876,-13.875000953674316,36.65625,-31.256250381469727
1694673246459344000,19.01234375,-13.762500762939453,36.65625,-31.556251525878906
1694673246479346700,19.0323466796875,-12.937500953674316,36.82500076293945,-31.837501525878906
1694673246499344400,19.052344482421876,-14.737500190734863,36,-32.493751525878906
1694673246519341600,19.072341552734375,-14.418750762939453,35.19375228881836,-32.90625
1694673246539343000,19.092343017578123,-13.18125057220459,34.650001525878906,-33.618751525878906
1694673246559340000,19.112340087890626,-12.187500953674316,32.73750305175781,-35.66250228881836
1694673246579339000,19.132339111328125,-11.475000381469727,31.931251525878906,-36.09375
1694673246599332000,19.15233203125,-10.668750762939453,30.67500114440918,-37.21875
1694673246619322400,19.172322265625,-9.543750762939453,29.493751525878906,-37.95000076293945
1694673246639311400,19.192311279296874,-8.831250190734863,27.806251525878906,-38.79375076293945
1694673246659311400,19.212311279296873,-6.656250476837158,27.075000762939453,-39.28125
1694673246679314200,19.232314208984373,-6.262500286102295,25.98750114440918,-40.51875305175781
1694673246699324400,19.252324462890623,-5.643750190734863,25.368751525878906,-40.42500305175781
1694673246719328500,19.27232861328125,-4.518750190734863,25.106250762939453,-40.72500228881836
1694673246739327500,19.292327392578127,-4.3125,24.375001907348633,-41.15625
1694673246759333600,19.312333740234376,-3.375000238418579,23.92500114440918,-41.55000305175781
1694673246779323100,19.3323232421875,-2.4375,23.512500762939453,-40.837501525878906
1694673246799321900,19.35232177734375,-1.818750023841858,23.4375,-40.63125228881836
1694673246819328500,19.37232861328125,-1.3875000476837158,24.76875114440918,-40.6875
1694673246839321900,19.39232177734375,-1.7812501192092896,25.837501525878906,-40.06875228881836
1694673246859333400,19.41233349609375,-3.0375001430511475,27.000001907348633,-39.73125076293945
1694673246879337000,19.4323369140625,-4.443750381469727,29.493751525878906,-38.587501525878906
1694673246899346400,19.452346435546875,-4.631250381469727,31.031251907348633,-37.33125305175781
1694673246919342300,19.47234228515625,-4.912500381469727,32.92500305175781,-36.375
1694673246939322600,19.492322509765625,-5.943750381469727,33.91875076293945,-35.45625305175781
1694673246959314200,19.512314208984375,-5.493750095367432,35.64375305175781,-34.087501525878906
1694673246979304200,19.53230419921875,-5.15625,37.10625076293945,-32.41875076293945
1694673246999305500,19.552305419921876,-5.043750286102295,38.00625228881836,-32.38125228881836
1694673247019309300,19.572309326171876,-5.737500190734863,38.56875228881836,-30.468751907348633
1694673247039320300,19.5923203125,-6.037500381469727,39.5625,-29.73750114440918
1694673247059324700,19.61232470703125,-6.843750476837158,40.837501525878906,-28.293750762939453
1694673247079335400,19.63233544921875,-8.175000190734863,42.01875305175781,-26.981250762939453
1694673247099339300,19.65233935546875,-8.77500057220459,43.01250076293945,-25.950000762939453
1694673247119348700,19.6723486328125,-8.043750762939453,43.462501525878906,-25.725000381469727
1694673247139340500,19.692340576171876,-8.137500762939453,43.57500076293945,-25.51875114440918
1694673247159340500,19.712340576171876,-8.137500762939453,44.00625228881836,-25.70625114440918
1694673247179328800,19.732328857421876,-8.02500057220459,44.28750228881836,-24.787500381469727
1694673247199341600,19.752341552734375,-8.02500057220459,44.10000228881836,-25.293750762939453
1694673247219340300,19.77234033203125,-7.087500095367432,43.931251525878906,-25.181251525878906
1694673247239335200,19.792335205078125,-6.787500381469727,43.837501525878906,-25.481250762939453
1694673247259330600,19.81233056640625,-6.581250190734863,43.91250228881836,-25.89375114440918
1694673247279312600,19.832312744140626,-6.168750286102295,43.556251525878906,-26.100000381469727
1694673247299318000,19.852318115234375,-6.693750381469727,43.462501525878906,-26.306251525878906
1694673247319318000,19.872318115234375,-5.662500381469727,43.181251525878906,-26.718751907348633
1694673247339321000,19.892321044921875,-5.775000095367432,43.01250076293945,-27.01875114440918
1694673247359331000,19.9123310546875,-5.15625,42.63750076293945,-27.712501525878906
1694673247379323100,19.9323232421875,-5.15625,42.28125,-27.525001525878906
1694673247399324400,19.952324462890626,-5.0625,41.8125,-28.443750381469727
1694673247419332900,19.972332763671876,-4.875,41.36250305175781,-29.062501907348633
1694673247439330600,19.99233056640625,-5.100000381469727,40.80000305175781,-30.093751907348633
1694673247459329000,20.0123291015625,-4.087500095367432,40.087501525878906,-30.806251525878906
1694673247479335000,20.0323349609375,-3.5812501907348633,38.90625,-31.931251525878906
1694673247499336000,20.0523359375,-3.281250238418579,37.91250228881836,-32.66250228881836
1694673247519336700,20.072336669921874,-2.4937500953674316,36.525001525878906,-34.51875305175781
1694673247539339500,20.092339599609375,-1.7812501192092896,35.53125,-35.34375
1694673247559338000,20.112337890625,0.16875000298023224,33.91875076293945,-36.67500305175781
1694673247579324700,20.13232470703125,0.862500011920929,32.75625228881836,-37.20000076293945
1694673247599325000,20.152324951171874,2.2125000953674316,31.931251525878906,-37.91250228881836
1694673247619317800,20.17231787109375,2.606250047683716,30.243751525878906,-38.66250228881836
1694673247639319800,20.19231982421875,3.5250000953674316,29.156251907348633,-39.48750305175781
1694673247659318300,20.212318359375,4.556250095367432,28.200000762939453,-39.20625305175781
1694673247679320000,20.232320068359375,5.493750095367432,27.750001907348633,-39.50625228881836
1694673247699317800,20.25231787109375,5.475000381469727,27.037500381469727,-39.82500076293945
1694673247719323400,20.272323486328126,5.681250095367432,27.30000114440918,-39.806251525878906
1694673247739323600,20.29232373046875,5.8125,27.39375114440918,-39.20625305175781
1694673247759331000,20.3123310546875,5.381250381469727,27.58125114440918,-39.30000305175781
1694673247779321300,20.3323212890625,4.987500190734863,28.575000762939453,-38.66250228881836
1694673247799320800,20.35232080078125,4.575000286102295,29.193750381469727,-38.26875305175781
1694673247819327700,20.37232763671875,3.2437500953674316,30.543750762939453,-37.63125228881836
1694673247839322600,20.392322509765624,3.0562500953674316,32.0625,-36.88125228881836
1694673247859317000,20.41231689453125,2.9625000953674316,33.48750305175781,-36.431251525878906
1694673247879324200,20.43232421875,1.2375000715255737,34.85625076293945,-35.118751525878906
1694673247899337200,20.452337158203125,1.03125,35.94375228881836,-33.88125228881836
1694673247919335700,20.472335693359376,0.7312500476837158,36.9375,-33.54375076293945
1694673247939319000,20.492319091796876,-0.24375000596046448,38.56875228881836,-31.500001907348633
1694673247959313000,20.51231298828125,0.05625000223517418,39.46875,-31.275001525878906
1694673247979308300,20.532308349609377,-0.7312500476837158,40.48125076293945,-29.437501907348633
1694673247999308000,20.55230810546875,-1.6500000953674316,41.212501525878906,-28.61250114440918
1694673248019311900,20.572311767578125,-1.9312500953674316,42.11250305175781,-27.58125114440918
1694673248039322000,20.592322021484375,-2.231250047683716,42.48750305175781,-26.981250762939453
1694673248059326200,20.612326171875,-2.7562501430511475,42.76875305175781,-26.587501525878906
1694673248079325400,20.632325439453126,-3.4875001907348633,42.95625305175781,-26.17500114440918
1694673248099331300,20.652331298828123,-3.8812501430511475,43.3125,-25.668750762939453
1694673248119343400,20.67234326171875,-3.7875001430511475,43.14375305175781,-25.462501525878906
1694673248139347700,20.69234765625,-3.9937500953674316,43.21875,-25.668750762939453
1694673248159346700,20.7123466796875,-3.7875001430511475,43.3125,-25.875001907348633
1694673248179334400,20.73233447265625,-3.5812501907348633,43.125,-26.17500114440918
1694673248199334400,20.75233447265625,-4.106250286102295,42.31875228881836,-26.512500762939453
1694673248219335000,20.7723349609375,-3.375000238418579,42.22500228881836,-26.493751525878906
1694673248239323600,20.79232373046875,-3.6937501430511475,41.868751525878906,-26.92500114440918
1694673248259322400,20.812322265625,-3.5062501430511475,41.306251525878906,-27.731250762939453
1694673248279306800,20.832306640625,-3.3187501430511475,41.212501525878906,-28.33125114440918
1694673248299313200,20.852313232421874,-3.4125001430511475,40.59375,-28.368751525878906
1694673248319314200,20.872314208984374,-2.6812500953674316,40.76250076293945,-28.650001525878906
1694673248339317000,20.89231689453125,-3.3375000953674316,40.03125,-29.08125114440918
1694673248359317200,20.912317138671874,-2.8125,39.67500305175781,-29.493751525878906
1694673248379313400,20.9323134765625,-3.543750047683716,39.03750228881836,-29.812501907348633
1694673248399317800,20.95231787109375,-2.53125,37.96875,-30.843751907348633
1694673248419328500,20.97232861328125,-2.6625001430511475,37.38750076293945,-32.0625
1694673248439332600,20.99233251953125,-1.9500000476837158,35.94375228881836,-33.41250228881836
1694673248459342800,21.0123427734375,-1.5562500953674316,35.13750076293945,-34.23750305175781
1694673248479346200,21.03234619140625,-0.6375000476837158,33.78750228881836,-35.0625
1694673248499344100,21.05234423828125,0.581250011920929,32.34375,-35.90625
1694673248519342600,21.072342529296876,1.0875000953674316,31.61250114440918,-36.82500076293945
1694673248539344000,21.09234375,2.625,29.73750114440918,-37.368751525878906
1694673248559340500,21.112340576171874,3.2250001430511475,29.118751525878906,-38.08125305175781
1694673248579335700,21.132335693359376,4.162500381469727,27.95625114440918,-38.400001525878906
1694673248599330600,21.15233056640625,4.78125,27.412500381469727,-38.41875076293945
1694673248619321600,21.172321533203124,5.606250286102295,27.168750762939453,-38.10000228881836
1694673248639338800,21.1923388671875,5.71875,26.812501907348633,-38.00625228881836
1694673248659323400,21.212323486328124,5.512500286102295,26.625001907348633,-38.025001525878906
1694673248679323000,21.232322998046875,5.943750381469727,26.83125114440918,-37.10625076293945
1694673248699330300,21.252330322265625,4.893750190734863,27.187501907348633,-37.20000076293945
1694673248719332000,21.27233203125,5.325000286102295,27.918750762939453,-36.5625
1694673248739329300,21.292329345703124,4.518750190734863,28.61250114440918,-36.26250076293945
1694673248759334100,21.312334228515624,2.9625000953674316,29.437501907348633,-35.45625305175781
1694673248779323000,21.332322998046877,3.5062501430511475,30.168750762939453,-34.70625305175781
1694673248799321000,21.352321044921876,2.15625,31.42500114440918,-34.087501525878906
1694673248819327200,21.3723271484375,1.5562500953674316,32.23125076293945,-33.16875076293945
1694673248839322400,21.392322265625,0.6375000476837158,33.48750305175781,-33.056251525878906
1694673248859316700,21.412316650390625,-0.48750001192092896,35.36250305175781,-31.70625114440918
1694673248879323600,21.43232373046875,-1.0875000953674316,36.1875,-30.975000381469727
1694673248899329000,21.4523291015625,-1.3687500953674316,37.63125228881836,-29.625001907348633
1694673248919329000,21.4723291015625,-1.7625000476837158,38.26875305175781,-28.912500381469727
1694673248939313200,21.492313232421875,-2.0625,39.712501525878906,-27.76875114440918
1694673248959309300,21.512309326171874,-2.6812500953674316,39.993751525878906,-27.468751907348633
1694673248979302100,21.53230224609375,-2.8687500953674316,40.70625305175781,-26.943750381469727
1694673248999307800,21.552307861328124,-3.8062500953674316,40.80000305175781,-27.056251525878906
1694673249019312000,21.57231201171875,-3.9000000953674316,41.34375,-26.437501907348633
1694673249039322600,21.592322509765626,-4.537500381469727,41.4375,-26.343751907348633
1694673249059327000,21.612326904296875,-4.725000381469727,41.53125,-26.025001525878906
1694673249079337200,21.632337158203125,-4.21875,41.79375076293945,-26.212501525878906
1694673249099340800,21.6523408203125,-5.25,41.775001525878906,-26.531251907348633
1694673249119350000,21.67235009765625,-4.743750095367432,41.681251525878906,-26.73750114440918
1694673249139341300,21.69234130859375,-5.362500190734863,41.15625,-26.756250381469727
1694673249159341300,21.71234130859375,-5.475000381469727,40.95000076293945,-27.562501907348633
1694673249179330300,21.732330322265625,-5.681250095367432,40.59375,-27.693750381469727
1694673249199331300,21.752331298828125,-5.8125,40.48125076293945,-28.293750762939453
1694673249219332600,21.77233251953125,-6.131250381469727,39.9375,-28.818750381469727
1694673249239329500,21.79232958984375,-5.512500286102295,39.86250305175781,-28.818750381469727
1694673249259326700,21.81232666015625,-6.037500381469727,39.39375305175781,-29.437501907348633
1694673249279309600,21.8323095703125,-6.056250095367432,39.20625305175781,-30.056251525878906
1694673249299313400,21.8523134765625,-6.375000476837158,38.38125228881836,-30.881250381469727
1694673249319318500,21.872318603515627,-5.962500095367432,38.025001525878906,-31.200000762939453
1694673249339316500,21.89231640625,-5.456250190734863,37.462501525878906,-32.00625228881836
1694673249359316500,21.91231640625,-5.0625,35.66250228881836,-33.16875076293945
1694673249379312600,21.932312744140624,-4.668750286102295,34.931251525878906,-33.993751525878906
1694673249399317000,21.95231689453125,-3.656250238418579,33.65625,-35.625
1694673249419328000,21.972327880859375,-3.6750001907348633,32.92500305175781,-36.35625076293945
1694673249439332400,21.992332275390623,-2.5500001907348633,31.950000762939453,-37.06875228881836
1694673249459342300,22.01234228515625,-0.8062500357627869,30.86250114440918,-37.98750305175781
1694673249479346000,22.032345947265625,0.8437500596046448,29.343751907348633,-38.60625076293945
1694673249499344000,22.05234375,0.8250000476837158,27.937501907348633,-38.45625305175781
1694673249519342300,22.07234228515625,1.6500000953674316,27.48750114440918,-39.16875076293945
1694673249539343600,22.092343505859375,2.3625001907348633,25.875001907348633,-39.48750305175781
1694673249559340300,22.11234033203125,2.4750001430511475,26.062501907348633,-39.1875
1694673249579326200,22.132326171875,2.981250047683716,25.33125114440918,-39.806251525878906
1694673249599322000,22.152322021484373,2.6625001430511475,25.687501907348633,-39.60000228881836
1694673249619315200,22.172315185546875,2.15625,26.043750762939453,-39.28125
1694673249639308500,22.19230859375,2.0625,26.943750381469727,-39.16875076293945
1694673249659309300,22.212309326171876,1.2375000715255737,27.11250114440918,-39.16875076293945
1694673249679313400,22.2323134765625,0.20625001192092896,28.462501525878906,-38.34375
1694673249699324200,22.25232421875,-0.6937500238418579,28.912500381469727,-37.743751525878906
1694673249719328800,22.272328857421876,-1.5187500715255737,31.162500381469727,-36.67500305175781
1694673249739328000,22.292327880859375,-2.325000047683716,32.51250076293945,-35.94375228881836
1694673249759334400,22.31233447265625,-2.512500047683716,33.78750228881836,-34.80000305175781
1694673249779324000,22.332323974609373,-3.937500238418579,35.41875076293945,-32.962501525878906
1694673249799322600,22.352322509765624,-4.331250190734863,36.48750305175781,-32.212501525878906
1694673249819329000,22.3723291015625,-4.706250190734863,38.212501525878906,-30.975000381469727
1694673249839324000,22.392323974609376,-4.275000095367432,38.775001525878906,-30.037500381469727
1694673249859324000,22.412323974609375,-4.762500286102295,39.95625305175781,-28.593751907348633
1694673249879329500,22.43232958984375,-5.493750095367432,40.76250076293945,-27.787500381469727
1694673249899340800,22.4523408203125,-5.475000381469727,41.493751525878906,-27.150001525878906
1694673249919345400,22.472345458984375,-5.887500286102295,41.775001525878906,-26.45625114440918
1694673249939325400,22.492325439453126,-6.075000286102295,42.150001525878906,-25.725000381469727
1694673249959316700,22.512316650390623,-6.787500381469727,42.95625305175781,-25.61250114440918
1694673249979311600,22.5323115234375,-6.787500381469727,42.69375228881836,-25.218751907348633
1694673249999310000,22.55231005859375,-6.675000190734863,43.33125305175781,-24.693750381469727
1694673250019312600,22.572312744140625,-7.087500095367432,43.06875228881836,-24.712501525878906
1694673250039322400,22.592322265625,-6.581250190734863,43.85625076293945,-25.181251525878906
1694673250059326000,22.612325927734375,-5.943750381469727,43.33125305175781,-24.693750381469727
1694673250079336000,22.6323359375,-6.262500286102295,43.05000305175781,-24.993751525878906
1694673250099339000,22.652339111328125,-5.962500095367432,42.41250228881836,-25.42500114440918
1694673250119348500,22.672348388671875,-5.568750381469727,42.67500305175781,-26.212501525878906
1694673250139351300,22.692351318359375,-5.962500095367432,41.962501525878906,-25.931251525878906
1694673250159348700,22.7123486328125,-5.887500286102295,42.30000305175781,-26.83125114440918
1694673250179336400,22.73233642578125,-5.981250286102295,41.41875076293945,-26.962501525878906
1694673250199335400,22.75233544921875,-5.793750286102295,41.306251525878906,-27.86250114440918
1694673250219335200,22.772335205078125,-6.018750190734863,41.025001525878906,-28.181251525878906
1694673250239339300,22.79233935546875,-5.081250190734863,40.66875076293945,-28.481250762939453
1694673250259323100,22.8123232421875,-5.100000381469727,40.10625076293945,-29.306251525878906
1694673250279307800,22.832307861328125,-4.818750381469727,39.01875305175781,-30.843751907348633
1694673250299313000,22.85231298828125,-4.087500095367432,38.38125228881836,-30.95625114440918
1694673250319313700,22.872313720703126,-3.3937501907348633,37.556251525878906,-32.79375076293945
1694673250339311900,22.892311767578125,-2.6812500953674316,36.20625305175781,-33.525001525878906
1694673250359313000,22.91231298828125,-1.256250023841858,35.47500228881836,-34.53750228881836
1694673250379310000,22.93231005859375,-0.4312500059604645,34.125,-35.47500228881836
1694673250399315500,22.9523154296875,0.675000011920929,32.94375228881836,-36.28125
1694673250419327000,22.972326904296875,2.4375,31.70625114440918,-37.01250076293945
1694673250439331600,22.99233154296875,3.7687501907348633,30.975000381469727,-37.70625305175781
1694673250459342300,23.01234228515625,3.9750001430511475,29.287500381469727,-37.85625076293945
1694673250479346000,23.032345947265625,4.368750095367432,28.218751907348633,-38.28750228881836
1694673250499344100,23.05234423828125,5.71875,28.218751907348633,-38.66250228881836
1694673250519342000,23.072342041015624,5.493750095367432,27.506250381469727,-38.90625
1694673250539343600,23.092343505859375,4.987500190734863,27.412500381469727,-38.8125
1694673250559340500,23.112340576171874,4.668750286102295,27.76875114440918,-38.70000076293945
1694673250579334000,23.132333984375,4.893750190734863,27.95625114440918,-38.38125228881836
1694673250599328500,23.15232861328125,3.9562501907348633,29.118751525878906,-38.0625
1694673250619319800,23.17231982421875,3.450000047683716,29.381250381469727,-37.875
1694673250639332400,23.192332275390626,3.468750238418579,31.350000381469727,-36.993751525878906
1694673250659327200,23.2123271484375,2.1187500953674316,31.80000114440918,-36.712501525878906
1694673250679326200,23.232326171875,1.5187500715255737,32.681251525878906,-36.1875
1694673250699332900,23.252332763671873,-0.01875000074505806,34.76250076293945,-34.743751525878906
1694673250719334000,23.272333984375,-0.6187500357627869,35.587501525878906,-33.806251525878906
1694673250739330800,23.292330810546876,-1.3125,37.21875,-32.45625305175781
1694673250759335200,23.312335205078124,-2.1187500953674316,38.47500228881836,-31.42500114440918
1694673250779323400,23.332323486328125,-2.418750047683716,39.48750305175781,-30.30000114440918
1694673250799321600,23.352321533203124,-3.1125001907348633,40.48125076293945,-28.856250762939453
1694673250819327500,23.372327392578125,-3.6187500953674316,40.95000076293945,-27.843751907348633
1694673250839330800,23.392330810546873,-3.918750047683716,41.32500076293945,-27.037500381469727
1694673250859331000,23.4123310546875,-3.9937500953674316,42.22500228881836,-26.418750762939453
1694673250879334400,23.43233447265625,-4.612500190734863,42.78750228881836,-25.687501907348633
1694673250899344100,23.45234423828125,-4.912500381469727,42.78750228881836,-24.993751525878906
1694673250919339800,23.47233984375,-5.118750095367432,43.06875228881836,-24.993751525878906
1694673250939321300,23.4923212890625,-5.4375,43.42500305175781,-24.787500381469727
1694673250959313400,23.5123134765625,-5.325000286102295,43.6875,-24.975000381469727
1694673250979304000,23.532303955078124,-5.212500095367432,43.25625228881836,-24.58125114440918
1694673250999306000,23.552305908203124,-5.118750095367432,43.42500305175781,-24.86250114440918
1694673251019309800,23.572309814453124,-5.006250381469727,43.14375305175781,-24.787500381469727
1694673251039320300,23.5923203125,-5.025000095367432,42.95625305175781,-25.293750762939453
1694673251059325000,23.612324951171875,-5.550000190734863,42.41250228881836,-25.818750381469727
1694673251079335400,23.63233544921875,-5.456250190734863,42.41250228881836,-25.725000381469727
1694673251099339000,23.652339111328125,-5.15625,42.22500228881836,-26.73750114440918
1694673251119348700,23.6723486328125,-5.475000381469727,41.75625228881836,-27.056251525878906
1694673251139340300,23.69234033203125,-5.0625,41.587501525878906,-27.150001525878906
1694673251159340300,23.71234033203125,-4.96875,41.28750228881836,-28.368751525878906
1694673251179328500,23.73232861328125,-4.875,40.85625076293945,-28.275001525878906
1694673251199336200,23.752336181640626,-4.6875,39.84375,-29.418750762939453
1694673251219336400,23.77233642578125,-3.656250238418579,39.58125305175781,-29.718751907348633
1694673251239332600,23.79233251953125,-4.181250095367432,38.118751525878906,-30.975000381469727
1694673251259330300,23.812330322265623,-3.5812501907348633,37.38750076293945,-32.08125305175781
1694673251279312100,23.83231201171875,-2.7750000953674316,36.82500076293945,-33.20625305175781
1694673251299316700,23.852316650390627,-1.5562500953674316,35.025001525878906,-34.35000228881836
1694673251319316700,23.872316650390626,-0.956250011920929,33.9375,-35.681251525878906
1694673251339313200,23.892313232421873,0.675000011920929,31.98750114440918,-36.31875228881836
1694673251359325000,23.912324951171875,1.3875000476837158,31.256250381469727,-37.03125
1694673251379319000,23.932319091796874,2.418750047683716,29.906251907348633,-37.76250076293945
1694673251399321600,23.952321533203126,3.656250238418579,28.668750762939453,-37.875
1694673251419330800,23.972330810546875,4.162500381469727,28.312501907348633,-38.19375228881836
1694673251439334100,23.992334228515624,4.256250381469727,27.58125114440918,-38.51250076293945
1694673251459343400,24.01234326171875,4.987500190734863,26.962501525878906,-38.625
1694673251479346200,24.03234619140625,5.306250095367432,27.506250381469727,-38.493751525878906
1694673251499344000,24.05234375,5.400000095367432,27.243751525878906,-38.400001525878906
1694673251519342000,24.072342041015624,4.78125,28.218751907348633,-38.79375076293945
1694673251539332000,24.09233203125,4.275000095367432,28.312501907348633,-38.28750228881836
1694673251559331300,24.112331298828124,4.893750190734863,29.118751525878906,-38.15625
1694673251579319800,24.13231982421875,4.087500095367432,30.20625114440918,-37.125
1694673251599317800,24.15231787109375,3.375000238418579,30.993751525878906,-36.806251525878906
1694673251619312600,24.172312744140626,1.9312500953674316,32.53125,-35.681251525878906
1694673251639323400,24.192323486328124,1.7437500953674316,33.78750228881836,-35.04375076293945
1694673251659321300,24.2123212890625,0.7125000357627869,35.32500076293945,-34.10625076293945
1694673251679322600,24.232322509765623,-0.1875,36.65625,-33.375
1694673251699330800,24.252330810546876,-1.5,37.931251525878906,-31.743751525878906
1694673251719333400,24.27233349609375,-1.4812500476837158,38.94375228881836,-30.39375114440918
1694673251739342300,24.29234228515625,-1.8750001192092896,39.9375,-29.662500381469727
1694673251759344600,24.3123447265625,-2.2875001430511475,41.47500228881836,-28.837501525878906
1694673251779330800,24.332330810546875,-3.6187500953674316,41.66250228881836,-27.731250762939453
1694673251799327000,24.352326904296874,-3.7125000953674316,42.28125,-27.618751525878906
1694673251819331300,24.372331298828126,-3.6937501430511475,42.84375,-26.793750762939453
1694673251839330800,24.392330810546873,-5.137500286102295,43.20000076293945,-26.493751525878906
1694673251859331000,24.4123310546875,-4.725000381469727,42.95625305175781,-25.98750114440918
1694673251879334100,24.432334228515625,-5.643750190734863,43.40625,-25.481250762939453
1694673251899343600,24.452343505859375,-5.53125,43.57500076293945,-25.275001525878906
1694673251919347000,24.472346923828123,-5.53125,44.00625228881836,-25.762500762939453
1694673251939327000,24.492326904296874,-5.4375,42.78750228881836,-25.500001907348633
1694673251959317200,24.512317138671875,-5.756250381469727,43.03125,-25.80000114440918
1694673251979307500,24.5323076171875,-5.981250286102295,42.58125305175781,-26.418750762939453
1694673251999306200,24.55230615234375,-5.137500286102295,42.22500228881836,-26.118751525878906
1694673252019309600,24.5723095703125,-5.15625,42.056251525878906,-26.531251907348633
1694673252039319800,24.59231982421875,-4.3125,41.681251525878906,-26.92500114440918
1694673252059324200,24.61232421875,-4.743750095367432,41.868751525878906,-26.83125114440918
1694673252079334700,24.632334716796876,-4.012500286102295,41.493751525878906,-27.225000381469727
1694673252099338500,24.65233837890625,-3.918750047683716,41.493751525878906,-27.131250381469727
1694673252119348200,24.67234814453125,-3.937500238418579,41.212501525878906,-28.14375114440918
1694673252139351000,24.69235107421875,-3.637500047683716,41.025001525878906,-28.668750762939453
1694673252159348700,24.7123486328125,-3.637500047683716,40.743751525878906,-29.36250114440918
1694673252179335700,24.732335693359374,-3.3375000953674316,39.65625,-30.000001907348633
1694673252199341300,24.75234130859375,-2.625,39.20625305175781,-30.918750762939453
1694673252219339800,24.77233984375,-1.40625,37.57500076293945,-32.45625305175781
1694673252239337700,24.792337646484373,-1.0125000476837158,36.48750305175781,-33.48750305175781
1694673252259332900,24.812332763671876,0.5062500238418579,34.931251525878906,-35.025001525878906
1694673252279313400,24.8323134765625,1.537500023841858,34.03125,-35.4375
1694673252299305500,24.852305419921876,2.5500001907348633,32.60625076293945,-36.58125305175781
1694673252319308000,24.87230810546875,3.468750238418579,31.70625114440918,-37.087501525878906
1694673252339306200,24.89230615234375,3.562500238418579,30.900001525878906,-37.42500305175781
1694673252359319800,24.91231982421875,4.893750190734863,29.381250381469727,-38.15625
1694673252379315500,24.9323154296875,4.987500190734863,29.006250381469727,-38.66250228881836
1694673252399319300,24.9523193359375,5.400000095367432,28.293750762939453,-38.681251525878906
1694673252419329500,24.97232958984375,5.606250286102295,28.125001907348633,-38.587501525878906
1694673252439333400,24.99233349609375,5.418750286102295,27.95625114440918,-38.28750228881836
1694673252459343400,25.01234326171875,6.131250381469727,27.95625114440918,-38.56875228881836
1694673252479335200,25.032335205078127,5.512500286102295,28.481250762939453,-38.775001525878906
1694673252499335700,25.052335693359375,4.087500095367432,29.568750381469727,-37.556251525878906
1694673252519335200,25.072335205078126,3.9750001430511475,30.093751907348633,-37.743751525878906
1694673252539345700,25.092345703125,3.375000238418579,31.631250381469727,-36.48750305175781
1694673252559342300,25.11234228515625,2.6437501907348633,32.17500305175781,-36.1875
1694673252579335400,25.13233544921875,1.4250000715255737,33.69375228881836,-35.55000305175781
1694673252599329800,25.152329833984375,1.125,34.95000076293945,-34.61250305175781
1694673252619321600,25.172321533203124,0.01875000074505806,36.82500076293945,-33.5625
1694673252639324400,25.192324462890625,-0.8812500238418579,37.66875076293945,-32.45625305175781
1694673252659320600,25.212320556640623,-1.1812500953674316,38.90625,-31.818750381469727
1694673252679318800,25.23231884765625,-1.3687500953674316,40.48125076293945,-29.64375114440918
1694673252699327500,25.252327392578124,-1.6500000953674316,41.13750076293945,-28.312501907348633
1694673252719330300,25.272330322265624,-1.9312500953674316,41.85000228881836,-27.693750381469727
1694673252739339800,25.29233984375,-1.6125000715255737,42.41250228881836,-26.868751525878906
1694673252759342600,25.312342529296874,-2.4375,43.03125,-26.45625114440918
1694673252779340500,25.332340576171877,-2.53125,43.05000305175781,-25.968751907348633
1694673252799334400,25.35233447265625,-2.512500047683716,44.04375076293945,-25.012500762939453
1694673252819336700,25.372336669921875,-3.2250001430511475,43.80000305175781,-24.037500381469727
1694673252839336400,25.39233642578125,-3.4312500953674316,44.41875076293945,-24.318750381469727
1694673252859335200,25.412335205078126,-2.9250001907348633,44.34375,-24.01875114440918
1694673252879336700,25.432336669921874,-3.0375001430511475,44.0625,-24.318750381469727
1694673252899345200,25.45234521484375,-2.8125,43.70625305175781,-24.431251525878906
1694673252919339800,25.47233984375,-2.9250001907348633,43.70625305175781,-24.525001525878906
1694673252939320600,25.492320556640625,-3.0375001430511475,43.78125,-24.731250762939453
1694673252959313200,25.512313232421874,-2.325000047683716,43.23750305175781,-25.23750114440918
1694673252979303000,25.532302978515624,-2.53125,42.88125228881836,-25.462501525878906
1694673252999303200,25.55230322265625,-2.0250000953674316,42.58125305175781,-26.475000381469727
1694673253019307500,25.5723076171875,-2.0250000953674316,42.50625228881836,-26.662500381469727
1694673253039318800,25.59231884765625,-1.9312500953674316,42.056251525878906,-26.681251525878906
1694673253059323600,25.61232373046875,-2.25,41.868751525878906,-27.30000114440918
1694673253079334700,25.632334716796876,-1.4250000715255737,41.493751525878906,-27.900001525878906
1694673253099338800,25.6523388671875,-1.443750023841858,40.3125,-28.856250762939453
1694673253119348700,25.6723486328125,-0.956250011920929,39.67500305175781,-29.868751525878906
1694673253139340500,25.692340576171876,-0.45000001788139343,38.400001525878906,-31.106250762939453
1694673253159340500,25.712340576171876,-0.26250001788139343,37.76250076293945,-31.631250381469727
1694673253179328800,25.732328857421876,1.162500023841858,35.962501525878906,-33.16875076293945
1694673253199327200,25.7523271484375,1.9875000715255737,35.32500076293945,-33.67500305175781
1694673253219329500,25.77232958984375,2.6812500953674316,34.06875228881836,-34.51875305175781
1694673253239327500,25.792327392578127,3.281250238418579,32.98125076293945,-35.4375
1694673253259341000,25.812341064453125,3.8062500953674316,32.08125305175781,-36.07500076293945
1694673253279320600,25.832320556640624,4.818750381469727,30.656251907348633,-36.993751525878906
1694673253299323000,25.852322998046876,5.4375,29.587501525878906,-36.82500076293945
1694673253319321000,25.872321044921875,6.356250286102295,28.51875114440918,-37.03125
1694673253339318300,25.892318359375,6.656250476837158,27.618751525878906,-37.76250076293945
1694673253359317200,25.912317138671874,6.862500190734863,27.431251525878906,-37.96875
1694673253379313000,25.93231298828125,6.862500190734863,27.543750762939453,-37.57500076293945
1694673253399316700,25.952316650390625,6.656250476837158,27.543750762939453,-37.57500076293945
1694673253419327200,25.9723271484375,6.056250095367432,28.42500114440918,-37.14375305175781
1694673253439331300,25.992331298828127,5.4375,29.325000762939453,-36.82500076293945
1694673253459341600,26.012341552734377,4.40625,29.868751525878906,-36.63750076293945
1694673253479345000,26.032344970703125,3.8062500953674316,31.106250762939453,-35.88750076293945
1694673253499343000,26.052343017578124,2.5687501430511475,32.90625,-35.36250305175781
1694673253519341300,26.07234130859375,1.7437500953674316,33.28125,-34.25625228881836
1694673253539338200,26.092338134765626,1.350000023841858,34.80000305175781,-33.60000228881836
1694673253559336400,26.11233642578125,0.4312500059604645,36.337501525878906,-32.36250305175781
1694673253579324000,26.132323974609374,-0.375,36.97500228881836,-31.743751525878906
1694673253599320600,26.152320556640625,-1.4812500476837158,38.41875076293945,-30.318750381469727
1694673253619315200,26.172315185546875,-1.8750001192092896,39.243751525878906,-28.98750114440918
1694673253639318500,26.192318603515623,-3.3187501430511475,40.23750305175781,-28.162500381469727
1694673253659319000,26.212319091796875,-3.6187500953674316,41.04375076293945,-27.431251525878906
1694673253679316200,26.232316162109374,-4.3125,41.15625,-26.531251907348633
1694673253699326200,26.252326171875,-5.231250286102295,41.17500305175781,-25.650001525878906
1694673253719329800,26.272329833984376,-5.231250286102295,41.98125076293945,-25.61250114440918
1694673253739328500,26.29232861328125,-5.34375,41.90625,-25.312501907348633
1694673253759334700,26.312334716796876,-5.550000190734863,42.243751525878906,-25.312501907348633
1694673253779323600,26.33232373046875,-6.581250190734863,41.98125076293945,-24.843751907348633
1694673253799322400,26.352322265625,-6.168750286102295,41.88750076293945,-25.537500381469727
1694673253819328800,26.372328857421873,-6.187500476837158,41.70000076293945,-25.856250762939453
1694673253839329500,26.39232958984375,-6.187500476837158,41.17500305175781,-25.762500762939453
1694673253859331300,26.412331298828125,-6.600000381469727,41.0625,-26.062501907348633
1694673253879334700,26.432334716796873,-6.918750286102295,41.15625,-26.681251525878906
1694673253899344400,26.452344482421875,-6.825000286102295,40.70625305175781,-26.587501525878906
1694673253919348000,26.472347900390623,-6.318750381469727,40.33125305175781,-27.000001907348633
1694673253939327200,26.4923271484375,-6.318750381469727,40.42500305175781,-27.093751907348633
1694673253959317800,26.51231787109375,-5.793750286102295,39.97500228881836,-27.806251525878906
1694673253979306500,26.532306396484376,-5.287500381469727,39.431251525878906,-27.618751525878906
1694673253999306500,26.552306396484376,-6.131250381469727,39.243751525878906,-28.537500381469727
