time,seconds_elapsed,z,y,x
1694672551553178000,0.10117822265625,-40.96875,-2.4750001430511475,25.275001525878906
1694672551573182200,0.12118212890625,-42,-2.4937500953674316,25.14375114440918
1694672551593195800,0.14119580078125,-41.681251525878906,-2.4000000953674316,25.068750381469727
1694672551613221600,0.1612216796875,-42.22500228881836,-2.325000047683716,24.843751907348633
1694672551633251600,0.18125146484375,-43.368751525878906,-2.6812500953674316,24.825000762939453
1694672551653283600,0.20128369140625,-41.28750228881836,-3.0187501907348633,25.443750381469727
1694672551673315800,0.22131591796875,-44.19375228881836,-3.3937501907348633,24.693750381469727
1694672551693335300,0.241335205078125,-41.17500305175781,-3.8062500953674316,25.33125114440918
1694672551713354200,0.261354248046875,-41.493751525878906,-4.78125,25.406251907348633
1694672551733361400,0.281361328125,-41.51250076293945,-5.4375,24.468751907348633
1694672551753364200,0.3013642578125,-41.73750305175781,-5.53125,23.756250381469727
1694672551773374000,0.3213740234375,-41.73750305175781,-6.243750095367432,23.53125
1694672551793368300,0.341368408203125,-40.81875228881836,-6.431250095367432,23.137500762939453
1694672551813369000,0.361369140625,-41.75625228881836,-6.637500286102295,22.51875114440918
1694672551833357300,0.381357421875,-40.81875228881836,-6.956250190734863,23.212501525878906
1694672551853343000,0.401343017578125,-40.6875,-7.218750476837158,24.037500381469727
1694672551873339600,0.421339599609375,-39.76875305175781,-6.956250190734863,23.64375114440918
1694672551893320200,0.4413203125,-40.80000305175781,-6.862500190734863,23.53125
1694672551913320000,0.46131982421875,-41.53125,-6.356250286102295,23.137500762939453
1694672551933316400,0.48131640625,-41.13750076293945,-6.525000095367432,22.725000381469727
1694672551953321500,0.501321533203125,-41.025001525878906,-6.018750190734863,22.443750381469727
1694672551973322000,0.521322021484375,-41.23125076293945,-6.637500286102295,22.42500114440918
1694672551993329700,0.54132958984375,-41.025001525878906,-5.925000190734863,22.23750114440918
1694672552013331700,0.561331787109375,-41.23125076293945,-6.018750190734863,22.631250381469727
1694672552033321700,0.58132177734375,-41.41875076293945,-5.118750095367432,23.17500114440918
1694672552053328600,0.60132861328125,-41.962501525878906,-5.400000095367432,22.23750114440918
1694672552073323000,0.621322998046875,-41.025001525878906,-5.137500286102295,22.162500381469727
1694672552093325800,0.641325927734375,-40.61250305175781,-5.137500286102295,22.162500381469727
1694672552113331200,0.661331298828125,-40.91250228881836,-4.856250286102295,22.162500381469727
1694672552133320200,0.6813203125,-41.34375,-4.612500190734863,21.86250114440918
1694672552153330200,0.701330078125,-41.025001525878906,-4.256250381469727,21.881250381469727
1694672552173328600,0.72132861328125,-41.53125,-4.068750381469727,21.881250381469727
1694672552193320700,0.74132080078125,-40.51875305175781,-4.612500190734863,21.28125
1694672552213312000,0.76131201171875,-41.025001525878906,-4.6875,22.087501525878906
1694672552233311000,0.78131103515625,-41.025001525878906,-4.256250381469727,21.787500381469727
1694672552253325600,0.80132568359375,-40.81875228881836,-4.6875,21.881250381469727
1694672552273333000,0.8213330078125,-40.70625305175781,-3.9000000953674316,21.600000381469727
1694672552293334500,0.84133447265625,-41.32500076293945,-4.518750190734863,21.975000381469727
1694672552313331500,0.86133154296875,-41.34375,-4.800000190734863,21.356250762939453
1694672552333324500,0.881324462890625,-41.13750076293945,-4.331250190734863,21.881250381469727
1694672552353326300,0.901326416015625,-40.931251525878906,-4.181250095367432,21.075000762939453
1694672552373335000,0.9213349609375,-40.81875228881836,-4.443750381469727,21.375
1694672552393337600,0.941337646484375,-40.72500228881836,-4.275000095367432,21.075000762939453
1694672552413329000,0.961328857421875,-41.23125076293945,-4.875,21.46875
1694672552433317000,0.981317138671875,-41.04375076293945,-4.631250381469727,20.868751525878906
1694672552453322800,1.00132275390625,-40.931251525878906,-4.537500381469727,21.375
1694672552473335000,1.0213349609375,-40.3125,-4.706250190734863,21.28125
1694672552493332500,1.04133251953125,-41.13750076293945,-4.612500190734863,21.375
1694672552513330000,1.061329833984375,-40.837501525878906,-4.631250381469727,20.775001525878906
1694672552533332500,1.08133251953125,-40.61250305175781,-4.706250190734863,21.58125114440918
1694672552553318000,1.10131787109375,-40.931251525878906,-5.081250190734863,20.756250381469727
1694672552573321200,1.1213212890625,-40.931251525878906,-4.537500381469727,20.962501525878906
1694672552593331500,1.14133154296875,-40.837501525878906,-4.800000190734863,21.168750762939453
1694672552613335600,1.16133544921875,-41.13750076293945,-4.518750190734863,21.881250381469727
1694672552633327000,1.1813271484375,-40.91250228881836,-4.612500190734863,21.787500381469727
1694672552653334800,1.201334716796875,-41.55000305175781,-5.0625,21.65625
1694672552673325600,1.22132568359375,-40.837501525878906,-5.0625,21.168750762939453
1694672552693325300,1.2413251953125,-40.51875305175781,-4.96875,21.5625
1694672552713332700,1.261332763671875,-40.61250305175781,-5.137500286102295,21.65625
1694672552733327600,1.28132763671875,-40.70625305175781,-5.400000095367432,22.068750381469727
1694672552753330000,1.301329833984375,-40.40625,-5.643750190734863,22.368751525878906
1694672552773335600,1.32133544921875,-40.61250305175781,-6.468750476837158,22.23750114440918
1694672552793335800,1.341335693359375,-39.993751525878906,-6.637500286102295,22.14375114440918
1694672552813343000,1.361343017578125,-39.900001525878906,-7.968750476837158,21.900001525878906
1694672552833336600,1.381336669921875,-40.42500305175781,-8.418750762939453,21.881250381469727
1694672552853327400,1.401327392578125,-39.78750228881836,-9.018750190734863,22.575000762939453
1694672552873316600,1.421316650390625,-39.48750305175781,-9.375,22.762500762939453
1694672552893318000,1.44131787109375,-39.58125305175781,-9.90000057220459,22.556251525878906
1694672552913320200,1.4613203125,-39.11250305175781,-11.30625057220459,19.59375
1694672552933318000,1.48131787109375,-38.85000228881836,-12.093750953674316,16.743751525878906
1694672552953323800,1.50132373046875,-38.306251525878906,-11.4375,10.725000381469727
1694672552973324300,1.52132421875,-38.775001525878906,-10.46250057220459,7.012500286102295
1694672552993320700,1.54132080078125,-36.45000076293945,-9.581250190734863,2.53125
1694672553013325300,1.5613251953125,-34.85625076293945,-6.431250095367432,-2.793750047683716
1694672553033317400,1.5813173828125,-33.11250305175781,-1.631250023841858,-6.375000476837158
1694672553053325800,1.601325927734375,-32.19375228881836,2.1187500953674316,-8.268750190734863
1694672553073321000,1.621321044921875,-30.01875114440918,6.075000286102295,-10.55625057220459
1694672553093327600,1.64132763671875,-28.556251525878906,13.031250953674316,-12.24375057220459
1694672553113333200,1.661333251953125,-26.45625114440918,17.137500762939453,-12.206250190734863
1694672553133322000,1.681322021484375,-23.90625,23.475000381469727,-10.987500190734863
1694672553153325000,1.701324951171875,-21.693750381469727,27.337501525878906,-9.731250762939453
1694672553173324500,1.721324462890625,-19.275001525878906,30.20625114440918,-8.606250762939453
1694672553193329400,1.741329345703125,-17.231250762939453,32.92500305175781,-6.262500286102295
1694672553213317400,1.7613173828125,-16.59375,34.03125,-4.518750190734863
1694672553233317400,1.7813173828125,-16.556251525878906,35.681251525878906,-2.4562501907348633
1694672553253330700,1.80133056640625,-17.26875114440918,36.60000228881836,-1.537500023841858
1694672553273336800,1.8213369140625,-17.53125,37.25625228881836,0.1875
1694672553293337000,1.841337158203125,-17.625,36.48750305175781,1.4812500476837158
1694672553313333200,1.861333251953125,-16.275001525878906,37.29375076293945,1.3125
1694672553333325600,1.88132568359375,-16.068750381469727,38.34375,0.956250011920929
1694672553353326800,1.901326904296875,-15.33750057220459,38.19375228881836,1.5562500953674316
1694672553373335000,1.9213349609375,-14.812500953674316,39.07500076293945,0.9937500357627869
1694672553393337600,1.941337646484375,-14.531250953674316,39.20625305175781,-0.6187500357627869
1694672553413328600,1.96132861328125,-13.08750057220459,39.375,-1.0875000953674316
1694672553433317400,1.9813173828125,-12.356250762939453,39.82500076293945,-0.862500011920929
1694672553453323300,2.0013232421875,-12.862500190734863,41.23125076293945,-1.03125
1694672553473335000,2.0213349609375,-10.256250381469727,40.837501525878906,0
1694672553493332500,2.04133251953125,-10.050000190734863,41.625,-0.4687500298023224
1694672553513326000,2.061326171875,-8.77500057220459,42.63750076293945,0.768750011920929
1694672553533317400,2.0813173828125,-8.456250190734863,42.28125,1.068750023841858
1694672553553317600,2.101317626953125,-9.600000381469727,42.03750228881836,1.350000023841858
1694672553573321700,2.12132177734375,-9.61875057220459,40.95000076293945,0.9187500476837158
1694672553593321000,2.141321044921875,-10.331250190734863,40.42500305175781,1.1812500953674316
1694672553613328000,2.161327880859375,-10.856250762939453,40.33125305175781,1.0875000953674316
1694672553633321700,2.18132177734375,-10.856250762939453,40.06875228881836,1.068750023841858
1694672553653320200,2.2013203125,-10.443750381469727,41.118751525878906,0.9187500476837158
1694672553673326300,2.221326416015625,-10.725000381469727,41.98125076293945,3.356250047683716
1694672553693327000,2.2413271484375,-10.65000057220459,43.85625076293945,6.937500476837158
1694672553713334500,2.26133447265625,-10.518750190734863,44.60625076293945,8.77500057220459
1694672553733330400,2.281330322265625,-11.137500762939453,45.243751525878906,9.581250190734863
1694672553753335800,2.301335693359375,-10.706250190734863,45.67500305175781,9.506250381469727
1694672553773340200,2.321340087890625,-9.975000381469727,46.3125,9.84375
1694672553793339400,2.34133935546875,-8.418750762939453,47.19375228881836,9.28125
1694672553813337900,2.361337890625,-8.737500190734863,47.38125228881836,9.581250190734863
1694672553833332200,2.381332275390625,-7.893750190734863,47.400001525878906,10.21875
1694672553853331700,2.401331787109375,-8.512500762939453,47.56875228881836,10.106250762939453
1694672553873323300,2.4213232421875,-7.687500476837158,47.8125,9.112500190734863
1694672553893321200,2.4413212890625,-7.387500286102295,47.212501525878906,9.506250381469727
1694672553913322800,2.46132275390625,-7.387500286102295,47.8125,8.90625
1694672553933319700,2.481319580078125,-6.993750095367432,47.34375,7.781250476837158
1694672553953324800,2.50132470703125,-6.168750286102295,46.96875,7.087500095367432
1694672553973336000,2.521336181640625,-6.843750476837158,45.48750305175781,4.40625
1694672553993322200,2.541322265625,-7.893750190734863,44.73750305175781,3.075000047683716
1694672554013325800,2.561325927734375,-8.53125,43.91250228881836,2.53125
1694672554033317400,2.5813173828125,-9.225000381469727,44.587501525878906,4.462500095367432
1694672554053307100,2.60130712890625,-10.331250190734863,45.337501525878906,6.375000476837158
1694672554073304800,2.621304931640625,-10.83750057220459,45.48750305175781,8.700000762939453
1694672554093309000,2.641308837890625,-11.418750762939453,47.13750076293945,10.74375057220459
1694672554113319700,2.661319580078125,-11.381250381469727,48.056251525878906,11.981250762939453
1694672554133320200,2.6813203125,-10.331250190734863,47.88750076293945,12.61875057220459
1694672554153324000,2.701323974609375,-10.537500381469727,48.337501525878906,12.825000762939453
1694672554173322500,2.721322509765625,-9.71250057220459,48.35625076293945,13.237500190734863
1694672554193317000,2.741317138671875,-8.756250381469727,49.25625228881836,13.36875057220459
1694672554213311000,2.76131103515625,-7.518750190734863,49.44375228881836,13.706250190734863
1694672554233312300,2.781312255859375,-5.118750095367432,49.80000305175781,13.631250381469727
1694672554253285400,2.801285400390625,-4.706250190734863,50.23125076293945,13.162500381469727
1694672554273302800,2.821302734375,-2.7375001907348633,50.962501525878906,13.406250953674316
1694672554293313000,2.84131298828125,0.581250011920929,51.056251525878906,13.256250381469727
1694672554313317400,2.8613173828125,2.6625001430511475,51.60000228881836,13.106250762939453
1694672554333327000,2.8813271484375,3.8625001907348633,50.906253814697266,9.975000381469727
1694672554353330700,2.90133056640625,4.96875,49.85625076293945,7.237500190734863
1694672554373328600,2.92132861328125,3.8625001907348633,48.54375076293945,4.350000381469727
1694672554393327000,2.9413271484375,3.637500047683716,47.79375076293945,3.0187501907348633
1694672554413335600,2.96133544921875,3.843750238418579,47.26875305175781,2.606250047683716
1694672554433331000,2.9813310546875,4.068750381469727,47.88750076293945,3.0187501907348633
1694672554453326600,3.00132666015625,3.7687501907348633,48.806251525878906,3.9562501907348633
1694672554473330200,3.021330078125,3.562500238418579,49.14375305175781,3.8625001907348633
1694672554493328600,3.04132861328125,2.9250001907348633,48.618751525878906,4.03125
1694672554513329200,3.0613291015625,2.8500001430511475,49.01250076293945,5.362500190734863
1694672554533320700,3.08132080078125,1.3875000476837158,48.468753814697266,5.118750095367432
1694672554553323500,3.101323486328125,1.7062500715255737,48.562503814697266,5.53125
1694672554573326000,3.121326171875,1.2750000953674316,48.431251525878906,4.3125
1694672554593335300,3.141335205078125,1.8000000715255737,48.54375076293945,4.725000381469727
1694672554613338400,3.16133837890625,0.9937500357627869,48.750003814697266,5.831250190734863
1694672554633329400,3.181329345703125,0.581250011920929,49.20000076293945,6.337500095367432
1694672554653336600,3.201336669921875,1.0125000476837158,49.406253814697266,7.668750286102295
1694672554673337900,3.221337890625,0.1875,49.23750305175781,7.443750381469727
1694672554693334800,3.241334716796875,0.6187500357627869,49.10625076293945,9.262500762939453
1694672554713322200,3.261322265625,-0.375,50.118751525878906,11.40000057220459
1694672554733316400,3.28131640625,0.26250001788139343,50.00625228881836,13.518750190734863
1694672554753318000,3.30131787109375,0.30000001192092896,51.01875305175781,14.756250381469727
1694672554773326300,3.321326416015625,0.30000001192092896,51.093753814697266,14.568750381469727
1694672554793329200,3.3413291015625,-0.4312500059604645,51.16875076293945,14.156250953674316
1694672554813319400,3.3613193359375,-0.7312500476837158,50.64375305175781,14.437500953674316
1694672554833319400,3.3813193359375,-0.5437500476837158,51.243751525878906,13.443750381469727
1694672554853319000,3.40131884765625,-1.350000023841858,51.187503814697266,14.756250381469727
1694672554873322000,3.421322021484375,-0.11250000447034836,51.618751525878906,14.568750381469727
1694672554893328100,3.441328125,-0.8250000476837158,51.375003814697266,15.356250762939453
1694672554913329000,3.461328857421875,-0.6187500357627869,50.83125305175781,15.356250762939453
1694672554933325000,3.481324951171875,-3.637500047683716,51.01875305175781,15.52500057220459
1694672554953329400,3.501329345703125,-3.937500238418579,50.83125305175781,15.506250381469727
1694672554973328600,3.52132861328125,-3.937500238418579,50.66250228881836,16.106250762939453
1694672554993335000,3.5413349609375,-3,50.587501525878906,16.42500114440918
1694672555013335800,3.561335693359375,-2.4750001430511475,51.67500305175781,16.762500762939453
1694672555033325000,3.581324951171875,-1.3125,51.243751525878906,17.775001525878906
1694672555053323500,3.601323486328125,-1.40625,51.431251525878906,17.887500762939453
1694672555073322200,3.621322265625,0.39375001192092896,52.218753814697266,20.868751525878906
1694672555093321500,3.641321533203125,1.5562500953674316,52.33125305175781,21.787500381469727
1694672555113334000,3.661333984375,1.1437500715255737,52.275001525878906,22.575000762939453
1694672555133314800,3.681314697265625,0,51.82500076293945,22.556251525878906
1694672555153318100,3.701318115234375,0.4125000238418579,51.900001525878906,21.95625114440918
1694672555173321200,3.7213212890625,-0.30000001192092896,51.73125076293945,22.443750381469727
1694672555193315600,3.741315673828125,0.30000001192092896,51.375003814697266,22.03125
1694672555213319700,3.761319580078125,-1.9687501192092896,51.63750076293945,22.21875
1694672555233317600,3.781317626953125,-1.256250023841858,51.525001525878906,21.825000762939453
1694672555253331000,3.8013310546875,-1.1437500715255737,51.712501525878906,22.03125
1694672555273337300,3.82133740234375,-1.03125,51.281253814697266,22.21875
1694672555293337600,3.841337646484375,-1.1437500715255737,51.281253814697266,22.3125
1694672555313333800,3.861333740234375,-1.5562500953674316,51.375003814697266,22.42500114440918
1694672555333326000,3.881326171875,-0.7125000357627869,51.375003814697266,22.631250381469727
1694672555353327400,3.901327392578125,-1.5562500953674316,51.375003814697266,22.818750381469727
1694672555373316900,3.92131689453125,-3.2250001430511475,51.187503814697266,22.387500762939453
1694672555393316400,3.94131640625,-2.1750001907348633,51.54375076293945,22.725000381469727
1694672555413319700,3.961319580078125,-1.8562500476837158,51.375003814697266,22.51875114440918
1694672555433311000,3.98131103515625,-2.793750047683716,51.187503814697266,22.59375
1694672555453319400,4.0013193359375,-3,51.187503814697266,22.6875
1694672555473325800,4.021325927734375,-2.3812501430511475,51.11250305175781,23.100000381469727
1694672555493327400,4.041327392578125,-2.4750001430511475,51.281253814697266,22.818750381469727
1694672555513326300,4.061326416015625,-2.2875001430511475,50.83125305175781,22.59375
1694672555533320200,4.0813203125,-3.5062501430511475,51.20625305175781,23.493751525878906
1694672555553328000,4.101328125,-2.4750001430511475,50.85000228881836,23.193750381469727
1694672555573330200,4.121330078125,-2.793750047683716,50.85000228881836,23.287500381469727
1694672555593338600,4.141338623046875,-2.0625,51.20625305175781,23.306251525878906
1694672555613341200,4.161341064453125,-1.9687501192092896,50.868751525878906,23.418750762939453
1694672555633331500,4.18133154296875,-2.4750001430511475,50.94375228881836,23.100000381469727
1694672555653337900,4.201337890625,-2.5875000953674316,50.85000228881836,23.193750381469727
1694672555673339100,4.221339111328125,-2.90625,50.75625228881836,23.08125114440918
1694672555693335300,4.241335205078125,-3.5250000953674316,50.681251525878906,23.475000381469727
1694672555713321500,4.261321533203125,-2.15625,50.94375228881836,23.71875
1694672555733314000,4.28131396484375,-2.3625001907348633,51.22500228881836,24.11250114440918
1694672555753315800,4.30131591796875,-2.4750001430511475,51.39375305175781,23.92500114440918
1694672555773317400,4.3213173828125,-2.4750001430511475,50.681251525878906,23.793750762939453
1694672555793315300,4.3413154296875,-1.9500000476837158,50.70000076293945,24.20625114440918
1694672555813310000,4.36131005859375,-2.4750001430511475,51.22500228881836,23.71875
1694672555833312800,4.381312744140625,-2.137500047683716,51.60000228881836,24.525001525878906
1694672555853311700,4.401311767578125,-2.043750047683716,51.41250228881836,24.131250381469727
1694672555873318000,4.42131787109375,-1.8375000953674316,51.243751525878906,24.731250762939453
1694672555893325800,4.441325927734375,-1.1062500476837158,51.78750228881836,24.656251907348633
1694672555913327900,4.461327880859375,-1.2000000476837158,50.98125076293945,25.14375114440918
1694672555933325000,4.481324951171875,-2.137500047683716,50.906253814697266,25.51875114440918
1694672555953330000,4.501329833984375,-2.4375,51.375003814697266,26.343751907348633
1694672555973340700,4.521340576171875,-1.8937500715255737,51.11250305175781,26.850000381469727
1694672555993344800,4.5413447265625,-3.468750238418579,51.03750228881836,27.11250114440918
1694672556013343200,4.56134326171875,-4.800000190734863,50.775001525878906,27.806251525878906
1694672556033330000,4.581329833984375,-4.912500381469727,50.94375228881836,27.618751525878906
1694672556053327000,4.6013271484375,-5.4375,50.66250228881836,27.281251907348633
1694672556073328400,4.621328369140625,-5.831250190734863,49.81875228881836,28.068750381469727
1694672556093325300,4.6413251953125,-6.262500286102295,49.44375228881836,28.256250381469727
1694672556113330400,4.661330322265625,-6.168750286102295,49.70625305175781,27.843751907348633
1694672556133311500,4.6813115234375,-6.881250381469727,50.23125076293945,27.656251907348633
1694672556153315800,4.70131591796875,-6.056250095367432,50.156253814697266,28.162500381469727
1694672556173315800,4.72131591796875,-5.53125,50.156253814697266,27.562501907348633
1694672556193315300,4.7413154296875,-4.818750381469727,50.306251525878906,26.681251525878906
1694672556213314300,4.761314208984375,-4.725000381469727,50.906253814697266,25.687501907348633
1694672556233315000,4.781315185546875,-3.3937501907348633,50.98125076293945,24.993751525878906
1694672556253329200,4.8013291015625,-2.4562501907348633,51.150001525878906,24.318750381469727
1694672556273336000,4.821336181640625,-1.125,51.48750305175781,23.231250762939453
1694672556293337300,4.84133740234375,-0.20625001192092896,51.281253814697266,22.537500381469727
1694672556313333500,4.86133349609375,-0.22500000894069672,52.05000305175781,21.131250381469727
1694672556333337000,4.881337158203125,0.07500000298023224,51.78750228881836,20.73750114440918
1694672556353336000,4.901336181640625,2.1187500953674316,52.16250228881836,18.46875
1694672556373323300,4.9213232421875,2.4375,51.82500076293945,18.356250762939453
1694672556393324000,4.941323974609375,3.7875001430511475,51.63750076293945,17.962501525878906
1694672556413325000,4.961324951171875,4.912500381469727,51.97500228881836,17.17500114440918
1694672556433314800,4.981314697265625,7.087500095367432,52.06875228881836,16.70625114440918
1694672556453313800,5.001313720703125,8.231250762939453,52.06875228881836,16.51875114440918
1694672556473320700,5.02132080078125,9.5625,51.88125228881836,16.23750114440918
1694672556493324800,5.04132470703125,11.53125,51.69375228881836,15.656250953674316
1694672556513321500,5.061321533203125,12.468750953674316,51.58125305175781,14.643750190734863
1694672556533322000,5.081322021484375,13.800000190734863,51.22500228881836,14.062500953674316
1694672556553329400,5.101329345703125,14.812500953674316,51.187503814697266,12.24375057220459
1694672556573331200,5.121331298828125,16.05000114440918,50.28750228881836,11.943750381469727
1694672556593328400,5.141328369140625,17.681251525878906,50.60625076293945,9.862500190734863
1694672556613333200,5.161333251953125,18.618751525878906,49.53750228881836,9.33750057220459
1694672556633325800,5.181325927734375,20.231250762939453,48.618751525878906,7.725000381469727
1694672556653334300,5.201334228515625,21.168750762939453,47.98125076293945,7.218750476837158
1694672556673336600,5.221336669921875,23.83125114440918,46.89375305175781,5.700000286102295
1694672556693336800,5.2413369140625,24.562501907348633,46.875,5.212500095367432
1694672556713332200,5.261332275390625,26.118751525878906,45.88125228881836,4.59375
1694672556733333800,5.281333740234375,27.543750762939453,44.38125228881836,4.462500095367432
1694672556753331000,5.3013310546875,29.006250381469727,43.95000076293945,4.181250095367432
1694672556773335800,5.321335693359375,29.100000381469727,43.6875,4.068750381469727
1694672556793327900,5.341327880859375,29.92500114440918,42.78750228881836,4.068750381469727
1694672556813318000,5.36131787109375,30.131250381469727,42.78750228881836,3.450000047683716
1694672556833317000,5.381317138671875,30.750001907348633,42.76875305175781,3.0562500953674316
1694672556853317600,5.401317626953125,30.525001525878906,42.67500305175781,2.6437501907348633
1694672556873328400,5.421328369140625,29.700000762939453,42.67500305175781,2.6437501907348633
1694672556893333000,5.4413330078125,29.475000381469727,42.30000305175781,2.0250000953674316
1694672556913332200,5.461332275390625,28.631250381469727,42.45000076293945,1.2000000476837158
1694672556933327400,5.481327392578125,28.537500381469727,42.45000076293945,1.2937500476837158
1694672556953330700,5.50133056640625,27.993751525878906,42.69375228881836,0.28125
1694672556973329000,5.521328857421875,28.106250762939453,43.06875228881836,0.7125000357627869
1694672556993334800,5.541334716796875,27.76875114440918,42.03750228881836,-1.03125
1694672557013335300,5.561335205078125,27.562501907348633,41.868751525878906,-1.03125
1694672557033324000,5.581323974609375,27.975000381469727,41.94375228881836,-0.9375000596046448
1694672557053326300,5.601326416015625,27.243751525878906,41.85000228881836,-1.256250023841858
1694672557073328000,5.621328125,27.76875114440918,41.493751525878906,-1.6500000953674316
1694672557093342000,5.641342041015625,28.256250381469727,40.76250076293945,-2.5687501430511475
1694672557113338400,5.66133837890625,28.875001907348633,40.03125,-3.093750238418579
1694672557133317600,5.681317626953125,29.17500114440918,39.056251525878906,-3.6187500953674316
1694672557153323300,5.7013232421875,29.156251907348633,38.587501525878906,-4.143750190734863
1694672557173320400,5.721320556640625,30.20625114440918,38.0625,-4.237500190734863
1694672557193321700,5.74132177734375,30.39375114440918,37.78125,-4.443750381469727
1694672557213330200,5.761330078125,30.281251907348633,36.97500228881836,-4.875
1694672557233314600,5.781314453125,30.806251525878906,36.69375228881836,-5.587500095367432
1694672557253328000,5.801327880859375,31.725000381469727,35.90625,-5.381250381469727
1694672557273334300,5.821334228515625,31.725000381469727,35.36250305175781,-6.112500190734863
1694672557293335000,5.8413349609375,32.34375,34.743751525878906,-5.8125
1694672557313323800,5.86132373046875,32.94375228881836,34.20000076293945,-6.431250095367432
1694672557333329700,5.88132958984375,33.26250076293945,33.76875305175781,-6.637500286102295
1694672557353331500,5.90133154296875,34.087501525878906,33.243751525878906,-6.337500095367432
1694672557373329700,5.92132958984375,33.5625,32.88750076293945,-6.243750095367432
1694672557393322500,5.941322509765625,33.46875,32.79375076293945,-6.262500286102295
1694672557413323800,5.96132373046875,33.67500305175781,33.13125228881836,-6.656250476837158
1694672557433313800,5.981313720703125,33.150001525878906,33.48750305175781,-6.750000476837158
1694672557453312800,6.001312744140625,33.375,34.125,-6.318750381469727
1694672557473320000,6.02131982421875,33.056251525878906,33.76875305175781,-6.543750286102295
1694672557493321200,6.0413212890625,33.46875,33.22500228881836,-6.656250476837158
1694672557513319400,6.0613193359375,34.29375076293945,32.88750076293945,-6.243750095367432
1694672557533320400,6.081320556640625,34.20000076293945,32.36250305175781,-5.962500095367432
1694672557553328600,6.10132861328125,34.931251525878906,32.45625305175781,-5.943750381469727
1694672557573330700,6.12133056640625,34.81875228881836,31.912500381469727,-5.756250381469727
1694672557593328000,6.141328125,35.13750076293945,31.912500381469727,-5.962500095367432
1694672557613333200,6.161333251953125,35.55000305175781,31.931251525878906,-5.756250381469727
1694672557633325600,6.18132568359375,34.61250305175781,32.36250305175781,-5.943750381469727
1694672557653322800,6.20132275390625,35.025001525878906,32.4375,-6.450000286102295
1694672557673327900,6.221327880859375,35.025001525878906,32.4375,-6.543750286102295
1694672557693320000,6.24131982421875,34.40625,32.625,-5.943750381469727
1694672557713318100,6.261318115234375,33.993751525878906,33.150001525878906,-6.131250381469727
1694672557733323800,6.28132373046875,33.78750228881836,33.78750228881836,-5.925000190734863
1694672557753317600,6.301317626953125,33.78750228881836,33.50625228881836,-6.131250381469727
1694672557773319200,6.321319091796875,33.375,33.525001525878906,-5.4375
1694672557793316400,6.34131640625,33.39375305175781,34.40625,-5.306250095367432
1694672557813323300,6.3613232421875,33.07500076293945,34.23750305175781,-5.006250381469727
1694672557833326800,6.381326904296875,31.631250381469727,35.47500228881836,-4.893750190734863
1694672557853329200,6.4013291015625,31.125001907348633,35.83125305175781,-4.78125
1694672557873337600,6.421337646484375,30.39375114440918,36.28125,-4.181250095367432
1694672557893340200,6.441340087890625,30.20625114440918,37.181251525878906,-3.9562501907348633
1694672557913337300,6.46133740234375,29.681251525878906,37.81875228881836,-3.543750047683716
1694672557933331000,6.4813310546875,28.743751525878906,38.60625076293945,-3.937500238418579
1694672557953333000,6.5013330078125,28.668750762939453,39.056251525878906,-3.1125001907348633
1694672557973330400,6.521330322265625,27.318750381469727,40.21875,-3.0187501907348633
1694672557993335800,6.541335693359375,27.01875114440918,40.23750305175781,-2.3062500953674316
1694672558013328100,6.561328125,26.306251525878906,41.587501525878906,-1.2750000953674316
1694672558033318700,6.581318603515625,25.70625114440918,42.39375305175781,-0.3375000059604645
1694672558053326000,6.601326171875,24.975000381469727,43.01250076293945,-0.03750000149011612
1694672558073328000,6.621328125,24.993751525878906,43.05000305175781,0.862500011920929
1694672558093341200,6.641341064453125,24.075000762939453,43.76250076293945,0.9750000238418579
1694672558113335600,6.66133544921875,23.34375,44.56875228881836,1.3875000476837158
1694672558133319400,6.6813193359375,21.806251525878906,44.56875228881836,1.8750001192092896
1694672558153321000,6.701321044921875,21.1875,45.63750076293945,2.4937500953674316
1694672558173321700,6.72132177734375,19.950000762939453,45.73125076293945,2.793750047683716
1694672558193322800,6.74132275390625,19.443750381469727,46.29375076293945,3.918750047683716
1694672558213319700,6.761319580078125,19.14375114440918,46.462501525878906,4.012500286102295
1694672558233317000,6.781317138671875,18.318750381469727,47.28750228881836,4.837500095367432
1694672558253319000,6.80131884765625,16.125,47.36250305175781,4.481250286102295
1694672558273316400,6.82131640625,16.668750762939453,47.83125305175781,5.625
1694672558293322000,6.841322021484375,14.812500953674316,48.656253814697266,6.637500286102295
1694672558313324800,6.86132470703125,13.781250953674316,48.375003814697266,6.918750286102295
1694672558333331500,6.88133154296875,12.975000381469727,48.95625305175781,8.231250762939453
1694672558353324800,6.90132470703125,12.80625057220459,50.587501525878906,10.08750057220459
1694672558373341400,6.921341552734375,12.412500381469727,50.79375076293945,11.49375057220459
1694672558393343200,6.94134326171875,12.506250381469727,50.625003814697266,11.606250762939453
1694672558413332200,6.961332275390625,10.83750057220459,50.51250076293945,10.762500762939453
1694672558433320000,6.98131982421875,9.787500381469727,50.400001525878906,10.03125
1694672558453317600,7.001317626953125,9.168750762939453,49.95000076293945,10.012500762939453
1694672558473331500,7.02133154296875,7.162500381469727,50.17500305175781,8.68125057220459
1694672558493329400,7.041329345703125,6.525000095367432,49.44375228881836,7.856250286102295
1694672558513331500,7.06133154296875,5.231250286102295,48.656253814697266,5.287500381469727
1694672558533328600,7.08132861328125,3.356250047683716,47.83125305175781,4.125
1694672558553333800,7.101333740234375,3.0187501907348633,47.08125305175781,3.093750238418579
1694672558573333500,7.12133349609375,1.4250000715255737,45.88125228881836,1.3125
1694672558593329400,7.141329345703125,2.043750047683716,46.16250228881836,1.4250000715255737
1694672558613333200,7.161333251953125,2.71875,47.26875305175781,3.093750238418579
1694672558633329200,7.1813291015625,4.931250095367432,48.50625228881836,6.281250476837158
1694672558653336000,7.201336181640625,7.612500190734863,50.156253814697266,11.21250057220459
1694672558673330000,7.221329833984375,10.425000190734863,51.13125228881836,17.943750381469727
1694672558693324000,7.241323974609375,13.237500190734863,52.125003814697266,24.975000381469727
1694672558713320400,7.261320556640625,14.40000057220459,51.35625076293945,26.475000381469727
1694672558733313500,7.2813134765625,14.193750381469727,51.11250305175781,27.187501907348633
1694672558753330000,7.301329833984375,13.762500762939453,51.243751525878906,25.162500381469727
1694672558773329400,7.321329345703125,13.83750057220459,50.868751525878906,24.243751525878906
1694672558793324300,7.34132421875,12.543750762939453,51.73125076293945,20.71875
1694672558813315600,7.361315673828125,11.175000190734863,51.16875076293945,19.162500381469727
1694672558833320200,7.3813203125,10.425000190734863,51.375003814697266,17.043750762939453
1694672558853323500,7.401323486328125,10.387500762939453,51.07500076293945,15.52500057220459
1694672558873333200,7.421333251953125,10.387500762939453,51.13125228881836,14.606250762939453
1694672558893336800,7.4413369140625,11.11875057220459,51.056251525878906,14.718750953674316
1694672558913335000,7.4613349609375,12.862500190734863,51.056251525878906,14.231250762939453
1694672558933329400,7.481329345703125,12.750000953674316,50.868751525878906,13.725000381469727
1694672558953332000,7.50133203125,12.956250190734863,50.66250228881836,12.825000762939453
1694672558973330000,7.521329833984375,13.36875057220459,50.64375305175781,12.61875057220459
1694672558993335600,7.54133544921875,13.350000381469727,50.55000305175781,11.90625
1694672559013329000,7.561328857421875,14.081250190734863,50.64375305175781,11.8125
1694672559033319000,7.58131884765625,13.856250762939453,50.00625228881836,11.40000057220459
1694672559053326300,7.601326416015625,14.268750190734863,50.00625228881836,11.193750381469727
1694672559073321000,7.621321044921875,15.300000190734863,50.156253814697266,10.21875
1694672559093323800,7.64132373046875,15.918750762939453,49.98750305175781,10.518750190734863
1694672559113322000,7.661322021484375,15.918750762939453,49.781253814697266,9.71250057220459
1694672559133305600,7.6813056640625,16.743751525878906,49.61250305175781,9.506250381469727
1694672559153312300,7.701312255859375,16.931251525878906,49.500003814697266,8.49375057220459
1694672559173320400,7.721320556640625,18.262500762939453,48.78750228881836,7.593750476837158
1694672559193323000,7.741322998046875,18.881250381469727,48.618751525878906,7.893750190734863
1694672559213321000,7.761321044921875,20.756250381469727,48,7.912500381469727
1694672559233319400,7.7813193359375,21.787500381469727,47.53125,7.200000286102295
1694672559253321000,7.801321044921875,22.725000381469727,47.36250305175781,7.012500286102295
1694672559273329700,7.82132958984375,23.868751525878906,46.837501525878906,7.012500286102295
1694672559293332000,7.84133203125,25.406251907348633,45.76875305175781,6.693750381469727
1694672559313326000,7.861326171875,26.64375114440918,45.056251525878906,6.693750381469727
1694672559333324500,7.881324462890625,27.075000762939453,44.625,7.106250286102295
1694672559353322200,7.901322265625,28.406251907348633,44.08125305175781,6.281250476837158
1694672559373321000,7.921321044921875,29.043750762939453,43.29375076293945,6.675000190734863
1694672559393327600,7.94132763671875,30.48750114440918,43.125,6.693750381469727
1694672559413321000,7.961321044921875,32.04375076293945,42.525001525878906,7.012500286102295
1694672559433312300,7.981312255859375,31.931251525878906,42.337501525878906,6.900000095367432
1694672559453312300,8.001312255859375,32.0625,42.431251525878906,7.406250476837158
1694672559473319700,8.021319580078124,33.50625228881836,41.92500305175781,7.406250476837158
1694672559493322800,8.04132275390625,33.50625228881836,41.47500228881836,7.500000476837158
1694672559513327600,8.06132763671875,33.20625305175781,41.73750305175781,7.518750190734863
1694672559533326800,8.081326904296875,33.11250305175781,42.03750228881836,8.418750762939453
1694672559553333200,8.101333251953125,33.525001525878906,41.92500305175781,8.02500057220459
1694672559573334000,8.121333984375,32.36250305175781,42.01875305175781,7.800000190734863
1694672559593330400,8.141330322265626,32.587501525878906,42.30000305175781,8.625
1694672559613334300,8.161334228515624,31.23750114440918,42.91875076293945,8.625
1694672559633326000,8.181326171875,30.731250762939453,43.70625305175781,8.4375
1694672559653325300,8.2013251953125,30.11250114440918,43.53750228881836,8.925000190734863
1694672559673323300,8.2213232421875,27.937501907348633,45.13125228881836,9.131250381469727
1694672559693324300,8.24132421875,27.525001525878906,45.67500305175781,9.543750762939453
1694672559713321000,8.261321044921875,25.368751525878906,46.66875076293945,10.668750762939453
1694672559733307400,8.281307373046875,24.543750762939453,47.19375228881836,10.762500762939453
1694672559753303800,8.3013037109375,23.418750762939453,48.11250305175781,11.981250762939453
1694672559773309400,8.321309326171875,23.006250381469727,48.562503814697266,12.393750190734863
1694672559793298200,8.341298095703126,21.46875,49.01250076293945,13.08750057220459
1694672559813297700,8.361297607421875,20.025001525878906,49.406253814697266,14.49375057220459
1694672559833304000,8.381303955078126,19.125,50.04375076293945,15.80625057220459
1694672559853313300,8.401313232421876,18.30000114440918,50.13750076293945,16.21875
1694672559873327600,8.42132763671875,18.318750381469727,50.51250076293945,17.137500762939453
1694672559893334300,8.441334228515625,17.193750381469727,50.812503814697266,18.225000381469727
1694672559913334800,8.461334716796875,16.6875,51.093753814697266,19.23750114440918
1694672559933330700,8.48133056640625,15.975000381469727,51.20625305175781,20.34375
1694672559953334000,8.501333984375,15.05625057220459,51.58125305175781,21.543750762939453
1694672559973343500,8.521343505859376,13.912500381469727,51.525001525878906,22.23750114440918
1694672559993340200,8.541340087890624,12.581250190734863,51.88125228881836,23.231250762939453
1694672560013335300,8.561335205078125,11.456250190734863,51.82500076293945,24.037500381469727
1694672560033323500,8.581323486328126,9.28125,51.656253814697266,24.806251525878906
1694672560053329700,8.60132958984375,8.568750381469727,51.656253814697266,24.993751525878906
1694672560073323300,8.6213232421875,6.393750190734863,52.20000076293945,26.08125114440918
1694672560093317600,8.641317626953125,5.34375,51.31875228881836,25.837501525878906
1694672560113317000,8.661317138671874,4.837500095367432,51.750003814697266,26.156251907348633
1694672560133301500,8.681301513671874,3.4875001907348633,51.750003814697266,26.025001525878906
1694672560153301500,8.701301513671876,2.8687500953674316,51.58125305175781,26.73750114440918
1694672560173301200,8.72130126953125,2.4375,51.562503814697266,25.912500381469727
1694672560193297400,8.74129736328125,2.7562501430511475,51.468753814697266,25.70625114440918
1694672560213313500,8.7613134765625,3.2437500953674316,51.69375228881836,24.412500381469727
1694672560233316900,8.78131689453125,4.6875,51.60000228881836,23.418750762939453
1694672560253320400,8.801320556640626,5.512500286102295,51.95625305175781,23.137500762939453
1694672560273330200,8.821330078125,7.687500476837158,51.656253814697266,21.84375
1694672560293333500,8.84133349609375,9.33750057220459,51.562503814697266,21.5625
1694672560313335600,8.86133544921875,10.36875057220459,51.54375076293945,20.681251525878906
1694672560333333500,8.88133349609375,11.193750381469727,51.63750076293945,19.875
1694672560353334000,8.901333984375,12.018750190734863,51.431251525878906,19.387500762939453
1694672560373341200,8.921341064453125,12.412500381469727,51.431251525878906,19.181251525878906
1694672560393324500,8.941324462890625,13.162500381469727,51.712501525878906,19.61250114440918
1694672560413317600,8.961317626953125,13.256250381469727,51.35625076293945,19.70625114440918
1694672560433308400,8.981308349609375,13.36875057220459,51.806251525878906,19.40625
1694672560453310500,9.001310546875,12.937500953674316,51.69375228881836,19.200000762939453
1694672560473310500,9.021310546875,13.050000190734863,51.26250076293945,19.387500762939453
1694672560493310700,9.041310791015626,12.412500381469727,51.69375228881836,18.693750381469727
1694672560513318400,9.061318359375,12.918750762939453,51.22500228881836,17.775001525878906
1694672560533320400,9.081320556640625,13.537500381469727,51.01875305175781,16.668750762939453
1694672560553329000,9.101328857421874,14.568750381469727,50.92500305175781,16.275001525878906
1694672560573331500,9.12133154296875,14.86875057220459,50.73750305175781,15.862500190734863
1694672560593329200,9.1413291015625,16.40625,50.38125228881836,15.187500953674316
1694672560613334000,9.161333984375,17.34375,49.931251525878906,14.981250762939453
1694672560633336000,9.181336181640624,18.993751525878906,50.10000228881836,14.30625057220459
1694672560653334800,9.201334716796875,19.293750762939453,49.38750076293945,14.175000190734863
1694672560673334800,9.221334716796875,20.73750114440918,49.275001525878906,12.787500381469727
1694672560693333000,9.2413330078125,22.61250114440918,48.67500305175781,13.106250762939453
1694672560713338600,9.261338623046875,24.67500114440918,48.03750228881836,12.71250057220459
1694672560733320400,9.281320556640624,25.912500381469727,46.81875228881836,12.787500381469727
1694672560753313000,9.30131298828125,27.787500381469727,46.98750305175781,12.61875057220459
1694672560773318700,9.321318603515625,29.118751525878906,46.087501525878906,11.71875
1694672560793304000,9.341303955078125,30.58125114440918,45.11250305175781,11.90625
1694672560813313800,9.361313720703125,32.118751525878906,44.306251525878906,11.30625057220459
1694672560833316000,9.381316162109375,33.46875,43.42500305175781,10.78125
1694672560853321000,9.401321044921875,33.65625,43.06875228881836,10.36875057220459
1694672560873332000,9.42133203125,34.181251525878906,42.26250076293945,10.36875057220459
1694672560893336300,9.44133642578125,34.275001525878906,42.150001525878906,9.75
1694672560913335300,9.461335205078125,34.462501525878906,41.88750076293945,9.33750057220459
1694672560933330000,9.481329833984375,35.08125305175781,41.962501525878906,9.05625057220459
1694672560953332700,9.501332763671876,36.13125228881836,41.34375,9.15000057220459
1694672560973343500,9.521343505859376,34.98750305175781,41.17500305175781,9.131250381469727
1694672560993337000,9.541337158203126,34.89375305175781,41.98125076293945,9.65625
1694672561013337000,9.561337158203125,34.6875,42.150001525878906,9.5625
1694672561033324800,9.58132470703125,34.087501525878906,42.97500228881836,10.575000762939453
1694672561053323000,9.601322998046875,33.03750228881836,43.3125,10.46250057220459
1694672561073317400,9.6213173828125,32.94375228881836,43.51875305175781,10.875
1694672561093309400,9.641309326171875,31.181251525878906,44.8125,10.59375
1694672561113299500,9.661299560546874,30.375001907348633,45.28125,11.700000762939453
1694672561133288400,9.681288330078125,28.61250114440918,46.35000228881836,11.90625
1694672561153295400,9.70129541015625,27.787500381469727,46.89375305175781,12.52500057220459
1694672561173308700,9.72130859375,26.55000114440918,47.625,13.237500190734863
1694672561193304300,9.74130419921875,24.618751525878906,48.35625076293945,14.737500190734863
1694672561213319200,9.761319091796874,23.26875114440918,48.73125076293945,15.937500953674316
1694672561233320000,9.78131982421875,21.637500762939453,49.743751525878906,17.36250114440918
1694672561253323000,9.801322998046874,21.431251525878906,50.025001525878906,17.962501525878906
1694672561273332200,9.821332275390626,19.59375,50.66250228881836,19.368751525878906
1694672561293334800,9.841334716796876,18.056251525878906,51.22500228881836,20.475000381469727
1694672561313325800,9.861325927734375,17.137500762939453,50.88750076293945,21.356250762939453
1694672561333339400,9.88133935546875,15.99375057220459,51.07500076293945,21.75
1694672561353338600,9.901338623046875,14.77500057220459,51.63750076293945,23.0625
1694672561373344800,9.9213447265625,13.218750953674316,51.63750076293945,23.4375
1694672561393326300,9.941326416015626,13.331250190734863,51.562503814697266,24.056251525878906
1694672561413321500,9.961321533203124,11.77500057220459,51.993751525878906,24.037500381469727
1694672561433311500,9.9813115234375,11.043750762939453,51.63750076293945,24.01875114440918
1694672561453311500,10.0013115234375,9.075000762939453,51.468753814697266,24.281251907348633
1694672561473314800,10.021314697265625,9.1875,51.82500076293945,24.806251525878906
1694672561493313800,10.041313720703124,8.77500057220459,51.750003814697266,25.406251907348633
1694672561513320400,10.061320556640625,8.981250762939453,51.48750305175781,25.293750762939453
1694672561533321500,10.081321533203125,8.981250762939453,51.41250228881836,25.80000114440918
1694672561553329400,10.101329345703125,8.887500762939453,51.843753814697266,25.70625114440918
1694672561573331500,10.12133154296875,8.981250762939453,51.22500228881836,25.481250762939453
1694672561593329000,10.141328857421875,10.21875,51.562503814697266,24.506250381469727
1694672561613333800,10.161333740234374,10.21875,51.281253814697266,24
1694672561633326000,10.181326171875,11.25,51.900001525878906,23.83125114440918
1694672561653325300,10.2013251953125,12.393750190734863,51.375003814697266,23.83125114440918
1694672561673330200,10.221330078125,13.106250762939453,51.093753814697266,23.231250762939453
1694672561693322800,10.24132275390625,13.818750381469727,51.26250076293945,22.631250381469727
1694672561713312500,10.2613125,15.262500762939453,50.98125076293945,22.14375114440918
1694672561733300200,10.28130029296875,15.693750381469727,50.906253814697266,22.256250381469727
1694672561753298400,10.30129833984375,15.675000190734863,51.07500076293945,21.75
1694672561773305600,10.3213056640625,16.3125,50.64375305175781,22.350000381469727
1694672561793298000,10.3412978515625,17.756250381469727,50.718753814697266,21.46875
1694672561813316000,10.361316162109375,18.056251525878906,50.437503814697266,20.756250381469727
1694672561833307400,10.381307373046875,18.037500381469727,50.66250228881836,19.556251525878906
1694672561853315600,10.401315673828124,18.543750762939453,50.38125228881836,18.84375
1694672561873329200,10.4213291015625,20.381250381469727,49.650001525878906,17.325000762939453
1694672561893324000,10.441323974609375,21.20625114440918,49.275001525878906,16.631250381469727
1694672561913326600,10.46132666015625,22.650001525878906,49.087501525878906,16.03125
1694672561933324500,10.481324462890624,23.15625,48.093753814697266,15.206250190734863
1694672561953329700,10.50132958984375,25.762500762939453,48.11250305175781,15.24375057220459
1694672561973334500,10.52133447265625,26.775001525878906,47.306251525878906,14.831250190734863
1694672561993347300,10.541347412109374,28.42500114440918,46.40625,14.231250762939453
1694672562013345500,10.561345458984375,30.506250381469727,45.525001525878906,13.83750057220459
1694672562033332700,10.581332763671876,31.743751525878906,44.88750076293945,13.331250190734863
1694672562053332000,10.60133203125,33.69375228881836,43.837501525878906,12.918750762939453
1694672562073325000,10.621324951171875,34.42500305175781,42.39375305175781,12.393750190734863
1694672562093315800,10.64131591796875,35.66250228881836,42.056251525878906,12.80625057220459
1694672562113315000,10.661315185546876,36.58125305175781,41.25,12.281250953674316
1694672562133307100,10.68130712890625,37.3125,40.70625305175781,11.77500057220459
1694672562153320000,10.70131982421875,37.087501525878906,40.25625228881836,10.950000762939453
1694672562173326300,10.721326416015625,37.181251525878906,39.806251525878906,11.34375
1694672562193327400,10.741327392578125,37.61250305175781,40.25625228881836,11.268750190734863
1694672562213335000,10.7613349609375,37.29375076293945,40.06875228881836,11.043750762939453
1694672562233329200,10.7813291015625,36.67500305175781,40.61250305175781,11.268750190734863
1694672562253328000,10.801327880859375,36.056251525878906,40.76250076293945,10.950000762939453
1694672562273333800,10.821333740234374,35.868751525878906,41.51250076293945,12.075000762939453
1694672562293326800,10.841326904296874,34.51875305175781,42.39375305175781,12.187500953674316
1694672562313339000,10.8613388671875,33.900001525878906,43.10625076293945,12.300000190734863
1694672562333330200,10.881330078125,31.725000381469727,44.53125,13.106250762939453
1694672562353332500,10.90133251953125,30.281251907348633,44.71875,13.406250953674316
1694672562373332000,10.92133203125,28.42500114440918,46.3125,13.912500381469727
1694672562393316600,10.941316650390625,27.618751525878906,47.118751525878906,14.437500953674316
1694672562413311500,10.9613115234375,25.650001525878906,47.587501525878906,15.543750762939453
1694672562433304300,10.98130419921875,24.11250114440918,48.48750305175781,16.443750381469727
1694672562453305900,11.001305908203125,22.256250381469727,48.48750305175781,16.931251525878906
1694672562473311200,11.021311279296874,20.606250762939453,49.593753814697266,18.356250762939453
1694672562493311700,11.041311767578126,19.068750381469727,49.968753814697266,19.33125114440918
1694672562513319400,11.0613193359375,17.118751525878906,50.493751525878906,20.043750762939453
1694672562533321500,11.081321533203125,16.181251525878906,50.60625076293945,20.73750114440918
1694672562553330000,11.101329833984375,15.168750762939453,50.718753814697266,21.637500762939453
1694672562573332200,11.121332275390625,13.08750057220459,50.88750076293945,21.918750762939453
1694672562593330000,11.141329833984376,12.787500381469727,51.07500076293945,22.818750381469727
1694672562613334800,11.161334716796874,11.043750762939453,51.01875305175781,24.093751907348633
1694672562633327400,11.181327392578124,10.293750762939453,51.26250076293945,23.587501525878906
1694672562653324500,11.201324462890625,9.46875,51.093753814697266,23.587501525878906
1694672562673329400,11.221329345703126,9.05625057220459,51.35625076293945,23.887500762939453
1694672562693321200,11.2413212890625,9.05625057220459,51.187503814697266,24.187501907348633
1694672562713311000,11.26131103515625,9.581250190734863,51.468753814697266,24.093751907348633
1694672562733299500,11.281299560546875,9.787500381469727,51.187503814697266,24.187501907348633
1694672562753300000,11.301300048828125,9.881250381469727,51.187503814697266,23.475000381469727
1694672562773298200,11.321298095703124,10.612500190734863,51.26250076293945,23.306251525878906
1694672562793297400,11.34129736328125,10.818750381469727,51.337501525878906,22.89375114440918
1694672562813316000,11.361316162109375,10.612500190734863,51.431251525878906,23.400001525878906
1694672562833319700,11.381319580078125,11.850000381469727,51.35625076293945,22.912500381469727
1694672562853325000,11.401324951171874,11.737500190734863,51.337501525878906,22.61250114440918
1694672562873336000,11.421336181640624,12.375000953674316,51.243751525878906,22.51875114440918
1694672562893329000,11.441328857421874,12.24375057220459,51.11250305175781,20.981250762939453
1694672562913330000,11.461329833984376,12.975000381469727,50.868751525878906,21.20625114440918
1694672562933326300,11.481326416015625,13.36875057220459,51.281253814697266,20.006250381469727
1694672562953324000,11.501323974609376,13.46250057220459,51.187503814697266,19.59375
1694672562973320000,11.52131982421875,14.700000762939453,50.64375305175781,18.806251525878906
1694672562993329200,11.5413291015625,15.000000953674316,50.88750076293945,17.90625
1694672563013336300,11.56133642578125,16.42500114440918,50.493751525878906,16.70625114440918
1694672563033326300,11.581326416015624,17.043750762939453,50.306251525878906,15.393750190734863
1694672563053325800,11.601325927734376,17.34375,49.837501525878906,14.981250762939453
1694672563073324500,11.621324462890625,19.61250114440918,49.72500228881836,13.593750953674316
1694672563093315000,11.641315185546874,20.64375114440918,49.181251525878906,13.08750057220459
1694672563113317600,11.661317626953124,21.86250114440918,48.375003814697266,12.075000762939453
1694672563133309700,11.681309814453124,23.418750762939453,48.093753814697266,11.77500057220459
1694672563153322500,11.701322509765625,25.481250762939453,47.64375305175781,10.6875
1694672563173328400,11.721328369140625,26.92500114440918,46.556251525878906,9.862500190734863
1694672563193329000,11.741328857421875,28.98750114440918,45.243751525878906,9.768750190734863
1694672563213336300,11.76133642578125,29.906251907348633,44.51250076293945,9.05625057220459
1694672563233330400,11.781330322265624,31.462501525878906,43.462501525878906,9.131250381469727
1694672563253328600,11.80132861328125,32.17500305175781,43.275001525878906,8.756250381469727
1694672563273334500,11.82133447265625,33.73125076293945,42.30000305175781,8.4375
1694672563293328000,11.841327880859374,34.03125,41.868751525878906,8.53125
1694672563313325800,11.861325927734375,34.556251525878906,41.493751525878906,8.53125
1694672563333320200,11.8813203125,33.84375,41.94375228881836,8.625
1694672563353323000,11.901322998046876,33.73125076293945,42.31875228881836,8.943750381469727
1694672563373325000,11.921324951171876,32.8125,42.65625,9.037500381469727
1694672563393312000,11.94131201171875,32.306251525878906,43.462501525878906,9.46875
1694672563413308400,11.961308349609375,31.80000114440918,44.19375228881836,10.387500762939453
1694672563433306600,11.981306640625,30.243751525878906,44.73750305175781,11.081250190734863
1694672563453304600,12.0013046875,29.531251907348633,45.5625,11.90625
1694672563473322000,12.021322021484375,29.137500762939453,46.01250076293945,12.412500381469727
1694672563493320200,12.0413203125,27.48750114440918,47.08125305175781,13.237500190734863
1694672563513325800,12.061325927734375,26.26875114440918,47.64375305175781,14.437500953674316
1694672563533326000,12.081326171875,24.11250114440918,48.656253814697266,16.05000114440918
1694672563553333200,12.101333251953125,23.17500114440918,49.368751525878906,16.368751525878906
1694672563573334300,12.121334228515625,21.131250381469727,50.36250305175781,17.775001525878906
1694672563593330700,12.14133056640625,19.98750114440918,50.212501525878906,18.5625
1694672563613328000,12.161327880859375,18.356250762939453,50.681251525878906,19.856250762939453
1694672563633321700,12.18132177734375,17.4375,50.70000076293945,20.962501525878906
1694672563653320000,12.20131982421875,16.40625,50.98125076293945,21.65625
1694672563673318400,12.221318359375,14.437500953674316,51.337501525878906,22.23750114440918
1694672563693303000,12.241302978515625,12.99375057220459,51.093753814697266,22.818750381469727
1694672563713298700,12.261298583984376,10.83750057220459,52.33125305175781,23.83125114440918
1694672563733292000,12.2812919921875,9.487500190734863,51.63750076293945,24.093751907348633
1694672563753293600,12.30129345703125,8.756250381469727,51.73125076293945,24.39375114440918
1694672563773305300,12.321305419921876,9.28125,51.562503814697266,25.106250762939453
1694672563793304000,12.341303955078125,8.86875057220459,51.20625305175781,25.087501525878906
1694672563813321700,12.36132177734375,8.231250762939453,51.11250305175781,24.76875114440918
1694672563833324300,12.38132421875,9.28125,51.31875228881836,25.406251907348633
1694672563853328600,12.40132861328125,9.487500190734863,51.11250305175781,24.787500381469727
1694672563873338600,12.421338623046875,9.80625057220459,51.468753814697266,24.693750381469727
1694672563893330400,12.441330322265625,10.106250762939453,51.63750076293945,24.20625114440918
1694672563913331000,12.4613310546875,10.93125057220459,51.468753814697266,24.01875114440918
1694672563933320700,12.48132080078125,11.456250190734863,51.11250305175781,24.318750381469727
1694672563953327900,12.501327880859375,12.393750190734863,51.281253814697266,23.83125114440918
1694672563973328000,12.521327880859374,13.218750953674316,51.187503814697266,23.53125
1694672563993323800,12.54132373046875,14.643750190734863,51.26250076293945,22.443750381469727
1694672564013327600,12.56132763671875,14.756250381469727,51.26250076293945,22.650001525878906
1694672564033319400,12.5813193359375,15.562500953674316,50.625003814697266,21.637500762939453
1694672564053319400,12.6013193359375,16.181251525878906,50.79375076293945,21.131250381469727
1694672564073315600,12.621315673828125,17.325000762939453,50.51250076293945,20.231250762939453
1694672564093309700,12.641309814453125,18.431251525878906,50.306251525878906,19.14375114440918
1694672564113319400,12.6613193359375,18.731250762939453,50.00625228881836,17.92500114440918
1694672564133311700,12.681311767578125,20.381250381469727,49.275001525878906,16.725000381469727
1694672564153324500,12.701324462890625,21.412500381469727,49.63125228881836,16.23750114440918
1694672564173330200,12.721330078125,23.475000381469727,48.63750076293945,15.637500762939453
1694672564193319200,12.741319091796875,24.506250381469727,48.26250076293945,14.437500953674316
1694672564213329000,12.761328857421875,26.981250762939453,47.64375305175781,13.74375057220459
1694672564233325300,12.7813251953125,28.631250381469727,46.48125076293945,13.631250381469727
1694672564253325600,12.80132568359375,29.868751525878906,45.50625228881836,13.312500953674316
1694672564273325000,12.821324951171874,31.931251525878906,44.25,12.506250381469727
1694672564293335600,12.84133544921875,33.28125,43.63125228881836,12.506250381469727
1694672564313332500,12.86133251953125,34.61250305175781,42.46875,11.475000381469727
1694672564333318000,12.88131787109375,34.59375,42.1875,11.0625
1694672564353313800,12.901313720703126,35.212501525878906,42.09375,10.575000762939453
1694672564373306600,12.921306640625,34.81875228881836,41.64375305175781,10.96875
1694672564393317600,12.941317626953126,35.4375,41.38125228881836,10.856250762939453
1694672564413313500,12.9613134765625,34.91250228881836,42.1875,10.96875
1694672564433307600,12.9813076171875,34.087501525878906,42.806251525878906,11.081250190734863
1694672564453316900,13.00131689453125,33.5625,42.806251525878906,10.96875
1694672564473331500,13.02133154296875,32.75625228881836,43.16250228881836,11.68125057220459
1694672564493327400,13.041327392578125,31.61250114440918,44.26875305175781,12.600000381469727
1694672564513331000,13.0613310546875,30.187501907348633,44.98125076293945,13.406250953674316
1694672564533329400,13.081329345703125,28.856250762939453,45.97500228881836,14.531250953674316
1694672564553335000,13.1013349609375,28.23750114440918,46.78125,14.943750381469727
1694672564573335300,13.121335205078125,26.062501907348633,47.32500076293945,15.937500953674316
1694672564593324300,13.14132421875,24.431251525878906,48.50625228881836,16.856250762939453
1694672564613314000,13.16131396484375,22.78125,49.05000305175781,17.756250381469727
1694672564633310700,13.181310791015624,21.150001525878906,49.80000305175781,19.575000762939453
1694672564653312000,13.20131201171875,20.118751525878906,49.72500228881836,20.26875114440918
1694672564673312800,13.221312744140626,18.787500381469727,50.00625228881836,21.46875
1694672564693299200,13.24129931640625,17.043750762939453,50.400001525878906,22.96875
1694672564713295000,13.261295166015625,15.393750190734863,50.75625228881836,23.756250381469727
1694672564733293600,13.28129345703125,14.68125057220459,50.775001525878906,24.656251907348633
1694672564753295400,13.30129541015625,13.237500190734863,50.718753814697266,25.631250381469727
1694672564773311700,13.321311767578125,11.68125057220459,50.98125076293945,25.931251525878906
1694672564793309400,13.341309326171874,10.65000057220459,51.07500076293945,26.025001525878906
1694672564813325800,13.361325927734375,10.237500190734863,50.45625305175781,26.493751525878906
1694672564833327000,13.3813271484375,9.412500381469727,51.07500076293945,26.400001525878906
1694672564853330700,13.40133056640625,8.887500762939453,50.79375076293945,26.17500114440918
1694672564873340200,13.421340087890625,8.77500057220459,50.88750076293945,26.08125114440918
1694672564893342700,13.4413427734375,9.28125,50.79375076293945,25.781251907348633
1694672564913340200,13.461340087890624,9.80625057220459,50.868751525878906,25.181251525878906
1694672564933326600,13.48132666015625,10.237500190734863,51.48750305175781,25.42500114440918
1694672564953337000,13.501337158203125,11.043750762939453,50.868751525878906,25.218751907348633
1694672564973334300,13.521334228515625,11.662500381469727,50.60625076293945,24.806251525878906
1694672564993320400,13.541320556640626,13.125000953674316,50.60625076293945,24.525001525878906
1694672565013317400,13.5613173828125,13.725000381469727,50.66250228881836,23.625
1694672565033312800,13.581312744140625,14.550000190734863,50.73750305175781,22.931251525878906
1694672565053304000,13.601303955078125,15.262500762939453,50.38125228881836,22.631250381469727
1694672565073304300,13.62130419921875,15.881250381469727,50.55000305175781,22.14375114440918
1694672565093308200,13.64130810546875,17.118751525878906,50.343753814697266,21.131250381469727
1694672565113319000,13.66131884765625,17.625,50.23125076293945,19.931251525878906
1694672565133312000,13.68131201171875,19.368751525878906,49.687503814697266,18.84375
1694672565153325000,13.701324951171875,20.08125114440918,49.48125076293945,18.131250381469727
1694672565173331200,13.721331298828124,21,48.843753814697266,16.818750381469727
1694672565193320200,13.7413203125,23.17500114440918,48.20625305175781,16.125
1694672565213330200,13.761330078125,24.506250381469727,47.83125305175781,15.43125057220459
1694672565233326600,13.78132666015625,26.36250114440918,46.76250076293945,14.30625057220459
1694672565253318700,13.801318603515625,28.312501907348633,46.29375076293945,13.518750190734863
1694672565273329700,13.82132958984375,30.168750762939453,44.868751525878906,12.600000381469727
1694672565293332200,13.841332275390625,31.106250762939453,44.79375076293945,12.61875057220459
1694672565313330000,13.861329833984374,33.48750305175781,43.181251525878906,12.187500953674316
1694672565333316900,13.88131689453125,34.10625076293945,42.84375,12.281250953674316
1694672565353313500,13.9013134765625,34.91250228881836,42.28125,11.68125057220459
1694672565373306600,13.921306640625,35.962501525878906,42.056251525878906,12.300000190734863
1694672565393300700,13.94130078125,35.868751525878906,41.4375,12.375000953674316
1694672565413300700,13.96130078125,36.28125,41.34375,12.281250953674316
1694672565433297200,13.981297119140624,35.868751525878906,41.70000076293945,12.393750190734863
1694672565453309700,14.001309814453125,35.36250305175781,42.056251525878906,12.787500381469727
1694672565473326800,14.021326904296876,35.04375076293945,42.86250305175781,13.106250762939453
1694672565493324800,14.04132470703125,34.125,42.86250305175781,13.293750762939453
1694672565513330000,14.061329833984376,32.681251525878906,43.95000076293945,14.512500762939453
1694672565533329400,14.081329345703125,31.350000381469727,44.94375228881836,15.037500381469727
1694672565553335800,14.101335693359376,30.225000381469727,45.76875305175781,16.256250381469727
1694672565573336000,14.121336181640626,28.462501525878906,46.650001525878906,16.856250762939453
1694672565593324800,14.14132470703125,27.150001525878906,47.56875228881836,18.28125
1694672565613337600,14.161337646484375,25.181251525878906,48.11250305175781,18.86250114440918
1694672565633328400,14.181328369140624,23.868751525878906,48.86250305175781,20.681251525878906
1694672565653318000,14.20131787109375,22.42500114440918,48.95625305175781,21.28125
1694672565673316600,14.221316650390625,21.712501525878906,49.16250228881836,22.387500762939453
1694672565693300200,14.24130029296875,19.443750381469727,49.70625305175781,23.17500114440918
1694672565713296400,14.26129638671875,18.618751525878906,49.98750305175781,23.681251525878906
1694672565733290200,14.281290283203125,16.668750762939453,50.08125305175781,24.95625114440918
1694672565753299700,14.3012998046875,15.318750381469727,50.26875305175781,25.443750381469727
1694672565773314800,14.321314697265626,13.143750190734863,50.26875305175781,25.837501525878906
1694672565793311200,14.341311279296875,12.112500190734863,50.55000305175781,26.212501525878906
1694672565813326800,14.361326904296876,11.381250381469727,50.45625305175781,26.212501525878906
1694672565833327400,14.381327392578125,10.537500381469727,50.60625076293945,25.500001907348633
1694672565853330400,14.401330322265625,10.237500190734863,50.79375076293945,25.500001907348633
1694672565873339600,14.421339599609375,9.693750381469727,50.775001525878906,24.881250381469727
1694672565893342200,14.44134228515625,9.90000057220459,51.20625305175781,24.48750114440918
1694672565913332000,14.46133203125,11.02500057220459,50.92500305175781,23.493751525878906
1694672565933322800,14.48132275390625,11.34375,50.83125305175781,23.381250381469727
1694672565953327400,14.501327392578125,11.53125,50.812503814697266,23.08125114440918
1694672565973326800,14.521326904296876,12.468750953674316,51.16875076293945,22.3125
1694672565993315000,14.541315185546875,13.18125057220459,50.79375076293945,22.106250762939453
1694672566013313300,14.561313232421876,14.006250381469727,50.343753814697266,21.806251525878906
1694672566033307600,14.5813076171875,14.325000762939453,50.681251525878906,21.01875114440918
1694672566053312000,14.60131201171875,15.24375057220459,50.32500076293945,20.306251525878906
1694672566073312000,14.62131201171875,15.33750057220459,50.38125228881836,19.293750762939453
1694672566093314600,14.641314453125,16.350000381469727,49.91250228881836,18.09375
1694672566113323800,14.66132373046875,17.0625,49.70625305175781,16.78125
1694672566133326800,14.681326904296874,17.962501525878906,49.76250076293945,15.693750381469727
1694672566153336300,14.70133642578125,18.787500381469727,48.937503814697266,14.268750190734863
1694672566173339100,14.721339111328126,20.325000762939453,48.562503814697266,13.27500057220459
1694672566193336600,14.741336669921875,21.243751525878906,48.187503814697266,12.262500762939453
1694672566213341700,14.761341796875,23.006250381469727,47.118751525878906,11.643750190734863
1694672566233334000,14.781333984375,26.08125114440918,46.38750076293945,10.36875057220459
1694672566253323800,14.80132373046875,26.606250762939453,46.03125,10.068750381469727
1694672566273337300,14.82133740234375,27.843751907348633,44.70000076293945,9.731250762939453
1694672566293337000,14.841337158203125,29.812501907348633,44.17500305175781,9.43125057220459
1694672566313325800,14.861325927734375,31.14375114440918,43.368751525878906,9.037500381469727
1694672566333312300,14.881312255859376,32.08125305175781,42.82500076293945,8.925000190734863
1694672566353309000,14.901308837890625,32.17500305175781,42.5625,8.831250190734863
1694672566373303600,14.921303466796875,32.08125305175781,42.48750305175781,8.925000190734863
1694672566393296100,14.941296142578125,32.60625076293945,42.84375,8.943750381469727
1694672566413304800,14.961304931640624,32.19375228881836,42.76875305175781,9.33750057220459
1694672566433300700,14.98130078125,32.10000228881836,43.29375076293945,9.84375
1694672566453312500,15.0013125,31.781251907348633,43.76250076293945,10.36875057220459
1694672566473329000,15.021328857421874,30.76875114440918,44.493751525878906,11.381250381469727
1694672566493325800,15.041325927734375,29.64375114440918,45.46875,11.793750762939453
1694672566513330400,15.061330322265626,28.42500114440918,46.03125,13.312500953674316
1694672566533329700,15.08132958984375,27.281251907348633,46.931251525878906,14.02500057220459
1694672566553335800,15.101335693359376,25.856250762939453,47.587501525878906,15.43125057220459
1694672566573329700,15.12132958984375,24.318750381469727,48.31875228881836,16.33125114440918
1694672566593322800,15.14132275390625,22.98750114440918,48.69375228881836,17.55000114440918
1694672566613329200,15.1613291015625,21.86250114440918,49.33125305175781,18.95625114440918
1694672566633322800,15.18132275390625,20.34375,50.08125305175781,20.887500762939453
1694672566653313000,15.20131298828125,18.693750381469727,50.906253814697266,22.087501525878906
1694672566673313000,15.22131298828125,17.043750762939453,50.83125305175781,22.96875
1694672566693304600,15.2413046875,15.206250190734863,50.962501525878906,24.356250762939453
1694672566713301500,15.261301513671874,13.65000057220459,50.681251525878906,24.843751907348633
1694672566733292800,15.281292724609376,12.206250190734863,50.962501525878906,25.33125114440918
1694672566753301500,15.301301513671875,10.443750381469727,50.98125076293945,26.118751525878906
1694672566773316000,15.321316162109374,9.206250190734863,51.243751525878906,26.193750381469727
1694672566793312300,15.341312255859375,7.218750476837158,50.962501525878906,26.26875114440918
1694672566813327400,15.361327392578126,5.756250381469727,51.22500228881836,25.856250762939453
1694672566833336600,15.381336669921875,5.868750095367432,51.31875228881836,26.156251907348633
1694672566853337300,15.40133740234375,6.393750190734863,51.31875228881836,26.062501907348633
1694672566873344500,15.421344482421874,6.693750381469727,51.31875228881836,25.668750762939453
1694672566893345500,15.441345458984374,7.725000381469727,51.20625305175781,25.068750381469727
1694672566913334500,15.46133447265625,8.550000190734863,51.656253814697266,24.693750381469727
1694672566933329000,15.481328857421875,10.425000190734863,51.281253814697266,24.39375114440918
1694672566953331700,15.501331787109375,11.456250190734863,51.01875305175781,24.11250114440918
1694672566973322200,15.521322265625,12.80625057220459,51.187503814697266,23.625
1694672566993310700,15.541310791015626,13.312500953674316,51.187503814697266,23.325000762939453
1694672567013309400,15.561309326171875,14.662500381469727,51.11250305175781,23.34375
1694672567033305000,15.58130517578125,15.375000953674316,50.812503814697266,22.33125114440918
1694672567053310000,15.60131005859375,15.99375057220459,50.79375076293945,21.637500762939453
1694672567073316900,15.62131689453125,17.118751525878906,50.60625076293945,21.056251525878906
1694672567093318400,15.641318359375,18.76875114440918,50.51250076293945,20.26875114440918
1694672567113326600,15.66132666015625,19.6875,49.931251525878906,18.65625
1694672567133329000,15.681328857421875,21.225000381469727,49.76250076293945,18.262500762939453
1694672567153337900,15.701337890625,23.287500381469727,49.38750076293945,17.0625
1694672567173340200,15.721340087890624,24.843751907348633,48.750003814697266,16.256250381469727
1694672567193326000,15.741326171875,25.856250762939453,48.281253814697266,14.943750381469727
1694672567213333200,15.761333251953126,28.631250381469727,46.931251525878906,13.537500381469727
1694672567233327600,15.78132763671875,30.600000381469727,45.95625305175781,13.143750190734863
1694672567253322500,15.801322509765624,31.631250381469727,45.337501525878906,13.031250953674316
1694672567273318700,15.821318603515625,33.28125,44.4375,12.731250762939453
1694672567293323000,15.841322998046875,34.42500305175781,43.20000076293945,12.318750381469727
1694672567313314800,15.861314697265625,34.72500228881836,42.65625,12.206250190734863
1694672567333304600,15.8813046875,35.55000305175781,42.20625305175781,11.793750762939453
1694672567353304000,15.901303955078125,36.07500076293945,42.48750305175781,11.90625
1694672567373300200,15.92130029296875,35.64375305175781,42.20625305175781,11.381250381469727
1694672567393295400,15.94129541015625,35.66250228881836,42.5625,12
1694672567413305000,15.96130517578125,34.837501525878906,43.275001525878906,12.206250190734863
1694672567433309200,15.98130908203125,33.58125305175781,43.72500228881836,12.412500381469727
1694672567453319400,16.0013193359375,32.775001525878906,44.26875305175781,12.61875057220459
1694672567473334500,16.02133447265625,30.918750762939453,45.78750228881836,13.83750057220459
1694672567493330400,16.041330322265626,29.681251525878906,46.59375,14.156250953674316
1694672567513333800,16.061333740234375,28.23750114440918,47.13750076293945,15.05625057220459
1694672567533331700,16.081331787109374,25.668750762939453,48.31875228881836,16.575000762939453
1694672567553337000,16.101337158203126,24.843751907348633,48.95625305175781,17.17500114440918
1694672567573329400,16.121329345703124,22.70625114440918,49.70625305175781,18.975000381469727
1694672567593326800,16.141326904296875,21.262500762939453,50.156253814697266,19.875
1694672567613332200,16.161332275390624,19.51875114440918,50.531253814697266,20.981250762939453
1694672567633325300,16.1813251953125,18.168750762939453,50.625003814697266,21.67500114440918
1694672567653314800,16.201314697265627,16.61250114440918,51.26250076293945,22.275001525878906
1694672567673314000,16.22131396484375,15.281250953674316,51.468753814697266,23.662500381469727
1694672567693301200,16.24130126953125,13.631250381469727,51.39375305175781,24.243751525878906
1694672567713296100,16.261296142578125,11.981250762939453,51.22500228881836,24.937501907348633
1694672567733296000,16.281296142578125,11.15625,51.48750305175781,24.918750762939453
1694672567753315600,16.301315673828125,10.21875,51.30000305175781,24.918750762939453
1694672567773326600,16.32132666015625,9.600000381469727,51.656253814697266,24.806251525878906
1694672567793331200,16.341331298828123,8.662500381469727,51.375003814697266,24.787500381469727
1694672567813341400,16.361341552734373,8.86875057220459,51.468753814697266,24.881250381469727
1694672567833337300,16.38133740234375,8.456250190734863,51.30000305175781,25.087501525878906
1694672567853336800,16.4013369140625,8.662500381469727,51.58125305175781,25.500001907348633
1694672567873343000,16.421343017578124,8.362500190734863,51.41250228881836,25.781251907348633
1694672567893337600,16.441337646484374,8.981250762939453,51.48750305175781,25.200000762939453
1694672567913337300,16.46133740234375,9.80625057220459,51.281253814697266,24.600000381469727
1694672567933330700,16.48133056640625,11.362500190734863,51.48750305175781,24.525001525878906
1694672567953332700,16.501332763671876,12.581250190734863,51.525001525878906,23.137500762939453
1694672567973338400,16.52133837890625,13.518750190734863,51.35625076293945,22.837501525878906
1694672567993323800,16.54132373046875,15.168750762939453,50.962501525878906,21.431251525878906
1694672568013318700,16.561318603515623,15.881250381469727,50.60625076293945,21.037500381469727
1694672568033311000,16.58131103515625,16.6875,50.41875076293945,20.231250762939453
1694672568053317600,16.601317626953126,17.212501525878906,50.51250076293945,20.850000381469727
1694672568073321700,16.62132177734375,18.5625,50.32500076293945,19.743751525878906
1694672568093321200,16.6413212890625,20.08125114440918,49.66875076293945,18.337501525878906
1694672568113327900,16.661327880859375,20.793750762939453,49.10625076293945,16.912500381469727
1694672568133329200,16.6813291015625,22.537500381469727,48.26250076293945,15.112500190734863
1694672568153337000,16.701337158203124,25.218751907348633,47.90625,14.325000762939453
1694672568173339100,16.721339111328124,27.58125114440918,46.38750076293945,13.218750953674316
1694672568193336000,16.741336181640627,30.693750381469727,45.243751525878906,13.312500953674316
1694672568213340700,16.761340576171875,33.1875,43.556251525878906,12.918750762939453
1694672568233333200,16.781333251953125,34.63125228881836,42.95625305175781,13.106250762939453
1694672568253330400,16.801330322265624,36.375,41.51250076293945,11.981250762939453
1694672568273335300,16.821335205078125,36.28125,40.89375305175781,12.375000953674316
1694672568293316900,16.84131689453125,36.993751525878906,40.70625305175781,11.77500057220459
1694672568313309400,16.861309326171874,36.88125228881836,40.35000228881836,11.568750381469727
1694672568333299500,16.881299560546875,36.88125228881836,40.33125305175781,11.043750762939453
1694672568353313800,16.901313720703126,36.78750228881836,40.78125,11.268750190734863
1694672568373307400,16.921307373046876,36.67500305175781,40.59375,11.15625
1694672568393306400,16.941306396484375,35.75625228881836,41.23125076293945,11.662500381469727
1694672568413313000,16.96131298828125,34.91250228881836,41.75625228881836,11.475000381469727
1694672568433308000,16.981307861328126,33.07500076293945,43.368751525878906,12.600000381469727
1694672568453317600,17.001317626953124,31.950000762939453,44.025001525878906,13.612500190734863
1694672568473332500,17.02133251953125,30.712501525878906,44.45625305175781,13.893750190734863
1694672568493328400,17.041328369140626,28.968751907348633,45.993751525878906,14.925000190734863
1694672568513332000,17.06133203125,27.525001525878906,46.63125228881836,16.03125
1694672568533330200,17.081330078125,25.98750114440918,47.71875,16.743751525878906
1694672568553328000,17.101328125,24.750001907348633,48.07500076293945,17.34375
1694672568573332200,17.121332275390625,23.006250381469727,48.82500076293945,19.368751525878906
1694672568593329200,17.1413291015625,21.881250381469727,49.275001525878906,19.668750762939453
1694672568613333800,17.161333740234376,21.375,49.743751525878906,20.887500762939453
1694672568633326300,17.181326416015626,19.21875,49.743751525878906,21.76875114440918
1694672568653315600,17.201315673828127,17.775001525878906,49.687503814697266,22.856250762939453
1694672568673314300,17.221314208984374,16.125,50.400001525878906,23.34375
1694672568693303600,17.241303466796875,15.093750953674316,50.32500076293945,24.131250381469727
1694672568713298700,17.261298583984374,13.106250762939453,50.66250228881836,24.01875114440918
1694672568733298200,17.281298095703125,12.80625057220459,50.66250228881836,24.01875114440918
1694672568753316600,17.301316650390625,11.4375,50.56875228881836,23.381250381469727
1694672568773327400,17.321327392578127,10.725000381469727,50.83125305175781,23.493751525878906
1694672568793331700,17.341331787109375,10.612500190734863,50.64375305175781,23.287500381469727
1694672568813341700,17.361341796875,10.706250190734863,50.812503814697266,22.875
1694672568833337900,17.381337890625,10.59375,50.625003814697266,22.368751525878906
1694672568853337000,17.401337158203123,11.737500190734863,50.70000076293945,21.975000381469727
1694672568873343200,17.42134326171875,11.737500190734863,50.88750076293945,21.787500381469727
1694672568893335800,17.441335693359374,11.831250190734863,50.962501525878906,21.48750114440918
1694672568913341000,17.4613408203125,12.43125057220459,50.75625228881836,20.681251525878906
1694672568933333500,17.48133349609375,13.36875057220459,51.03750228881836,20.493751525878906
1694672568953327600,17.50132763671875,13.668750762939453,50.56875228881836,19.387500762939453
1694672568973319000,17.52131884765625,13.875000953674316,50.36250305175781,18.975000381469727
1694672568993308400,17.541308349609373,14.58750057220459,49.98750305175781,17.868751525878906
1694672569013319000,17.56131884765625,15.093750953674316,50.156253814697266,16.96875
1694672569033312800,17.581312744140625,16.200000762939453,49.837501525878906,15.168750762939453
1694672569053322200,17.601322265625,16.61250114440918,49.556251525878906,14.550000190734863
1694672569073325800,17.621325927734375,18.243751525878906,49.181251525878906,13.668750762939453
1694672569093324300,17.64132421875,20.100000381469727,48.712501525878906,12.168750762939453
1694672569113330400,17.661330322265623,21.337501525878906,47.98125076293945,11.15625
1694672569133320000,17.68131982421875,22.762500762939453,47.17500305175781,10.03125
1694672569153330000,17.701329833984374,24.618751525878906,46.44375228881836,9.33750057220459
1694672569173333500,17.72133349609375,26.26875114440918,45.54375076293945,8.21250057220459
1694672569193332500,17.74133251953125,27.600000381469727,45,7.725000381469727
1694672569213339100,17.761339111328127,28.931251525878906,44.38125228881836,7.218750476837158
1694672569233340200,17.781340087890626,29.868751525878906,43.57500076293945,6.806250095367432
1694672569253335800,17.801335693359373,30.58125114440918,43.03125,6.693750381469727
1694672569273339600,17.821339599609374,30.900001525878906,42.76875305175781,6.393750190734863
1694672569293319400,17.8413193359375,31.42500114440918,42.50625228881836,6.693750381469727
1694672569313321000,17.861321044921876,31.312501907348633,42.056251525878906,6.581250190734863
1694672569333309400,17.881309326171873,31.106250762939453,42.50625228881836,6.881250381469727
1694672569353307000,17.901306884765624,30.693750381469727,42.86250305175781,7.200000286102295
1694672569373301500,17.921301513671875,29.475000381469727,43.96875,8.418750762939453
1694672569393301200,17.94130126953125,28.668750762939453,44.60625076293945,9.131250381469727
1694672569413309000,17.961308837890623,27.750001907348633,45.76875305175781,10.162500381469727
1694672569433304600,17.9813046875,25.89375114440918,46.5,10.96875
1694672569453315300,18.0013154296875,24.86250114440918,47.23125076293945,12.187500953674316
1694672569473331000,18.0213310546875,23.850000381469727,48.056251525878906,12.99375057220459
1694672569493327600,18.04132763671875,22.537500381469727,48.525001525878906,14.718750953674316
1694672569513331700,18.061331787109374,20.775001525878906,49.23750305175781,15.018750190734863
1694672569533330400,18.081330322265625,20.568750381469727,49.25625228881836,15.80625057220459
1694672569553328600,18.10132861328125,19.23750114440918,50.08125305175781,17.137500762939453
1694672569573337600,18.121337646484374,18.225000381469727,50.19375228881836,18.337501525878906
1694672569593333200,18.141333251953125,15.018750190734863,50.47500228881836,19.70625114440918
1694672569613329400,18.161329345703123,14.625000953674316,50.868751525878906,20.8125
1694672569633322200,18.181322265625,12.468750953674316,51.056251525878906,21.806251525878906
1694672569653314800,18.201314697265627,11.53125,51.13125228881836,21.881250381469727
1694672569673323500,18.221323486328124,10.27500057220459,50.868751525878906,21.5625
1694672569693306400,18.241306396484376,8.925000190734863,51.22500228881836,22.162500381469727
1694672569713314300,18.261314208984373,8.418750762939453,50.962501525878906,22.03125
1694672569733310000,18.28131005859375,8.700000762939453,51.20625305175781,20.943750381469727
1694672569753325000,18.301324951171875,7.875000476837158,51.093753814697266,20.83125114440918
1694672569773333200,18.321333251953124,7.443750381469727,50.64375305175781,20.418750762939453
1694672569793335000,18.3413349609375,6.637500286102295,51.281253814697266,20.92500114440918
1694672569813343200,18.36134326171875,6.112500190734863,51.03750228881836,21.806251525878906
1694672569833338000,18.381338134765624,6.637500286102295,51.281253814697266,21.525001525878906
1694672569853336600,18.401336669921875,7.031250476837158,50.92500305175781,21.01875114440918
1694672569873342500,18.421342529296876,7.537500381469727,50.906253814697266,19.818750381469727
1694672569893335600,18.44133544921875,8.475000381469727,50.531253814697266,19.51875114440918
1694672569913333200,18.461333251953125,9.825000762939453,50.98125076293945,19.03125
1694672569933327400,18.481327392578127,10.65000057220459,50.625003814697266,18.9375
1694672569953330000,18.501329833984375,11.381250381469727,50.531253814697266,19.05000114440918
1694672569973323800,18.52132373046875,12.412500381469727,51.16875076293945,19.181251525878906
1694672569993311500,18.5413115234375,13.256250381469727,50.906253814697266,18.881250381469727
1694672570013310000,18.56131005859375,14.793750762939453,50.718753814697266,18.506250381469727
1694672570033305900,18.581305908203124,15.918750762939453,50.343753814697266,17.287500381469727
1694672570053317000,18.601317138671874,16.837501525878906,50.212501525878906,16.087501525878906
1694672570073322200,18.621322265625,17.868751525878906,50.28750228881836,15.093750953674316
1694672570093322200,18.641322265625,20.73750114440918,48.937503814697266,13.27500057220459
1694672570113329200,18.6613291015625,21.65625,48.468753814697266,12.581250190734863
1694672570133319200,18.681319091796876,23.306251525878906,48.01875305175781,11.887500762939453
1694672570153329700,18.70132958984375,26.418750762939453,46.95000076293945,11.287500381469727
1694672570173333800,18.721333740234375,27.86250114440918,45.88125228881836,10.875
1694672570193332500,18.74133251953125,30.337501525878906,44.73750305175781,10.36875057220459
1694672570213319700,18.761319580078126,32.00625228881836,43.66875076293945,9.956250190734863
1694672570233317000,18.781317138671874,33.337501525878906,42.67500305175781,9.356250762939453
1694672570253319000,18.80131884765625,34.57500076293945,41.79375076293945,9.84375
1694672570273332000,18.82133203125,34.78125,41.71875,9.956250190734863
1694672570293314800,18.841314697265624,34.80000305175781,41.90625,10.46250057220459
1694672570313309400,18.861309326171874,34.38750076293945,42.16875076293945,10.46250057220459
1694672570333315300,18.8813154296875,33.46875,43.087501525878906,11.381250381469727
1694672570353312800,18.901312744140625,33.375,42.993751525878906,11.887500762939453
1694672570373314600,18.921314453125,32.13750076293945,43.89375305175781,12.393750190734863
1694672570393312000,18.94131201171875,31.42500114440918,44.71875,13.312500953674316
1694672570413317400,18.9613173828125,29.775001525878906,45.618751525878906,14.325000762939453
1694672570433309700,18.981309814453127,28.443750381469727,46.25625228881836,15.24375057220459
1694672570453318700,19.001318603515625,27.225000381469727,47.08125305175781,16.14375114440918
1694672570473333000,19.0213330078125,24.750001907348633,47.98125076293945,17.55000114440918
1694672570493328600,19.04132861328125,23.71875,48.26250076293945,18.356250762939453
1694672570513332000,19.06133203125,22.275001525878906,48.993751525878906,18.86250114440918
1694672570533324000,19.081323974609376,21.450000762939453,49.16250228881836,18.95625114440918
1694672570553321700,19.10132177734375,19.387500762939453,49.53750228881836,19.931251525878906
1694672570573325300,19.1213251953125,18.150001525878906,49.81875228881836,20.64375114440918
1694672570593324000,19.141323974609374,17.118751525878906,50.17500305175781,21.131250381469727
1694672570613330400,19.161330322265623,15.262500762939453,50.45625305175781,22.33125114440918
1694672570633323800,19.18132373046875,13.406250953674316,50.212501525878906,23.193750381469727
1694672570653314600,19.201314453125,12.281250953674316,50.56875228881836,23.606250762939453
1694672570673316000,19.221316162109375,11.550000190734863,50.306251525878906,23.793750762939453
1694672570693300200,19.24130029296875,11.34375,50.47500228881836,23.887500762939453
1694672570713314600,19.261314453125,11.02500057220459,50.118751525878906,23.662500381469727
1694672570733310500,19.281310546875,10.912500381469727,50.45625305175781,22.96875
1694672570753326000,19.301326171875,10.387500762939453,50.36250305175781,22.556251525878906
1694672570773334000,19.321333984375,10.706250190734863,50.19375228881836,22.96875
1694672570793336000,19.341336181640624,9.675000190734863,50.73750305175781,23.26875114440918
1694672570813344000,19.361343994140626,9.787500381469727,50.587501525878906,24.48750114440918
1694672570833335600,19.38133544921875,8.96250057220459,50.23125076293945,25.068750381469727
1694672570853334500,19.40133447265625,8.568750381469727,50.250003814697266,25.668750762939453
1694672570873334300,19.421334228515626,8.86875057220459,50.062503814697266,25.462501525878906
1694672570893332000,19.44133203125,8.77500057220459,50.062503814697266,25.668750762939453
1694672570913331000,19.4613310546875,8.662500381469727,50.26875305175781,26.062501907348633
1694672570933320000,19.48131982421875,8.456250190734863,49.98750305175781,25.950000762939453
1694672570953317000,19.501317138671876,8.77500057220459,50.343753814697266,26.062501907348633
1694672570973311200,19.521311279296874,8.456250190734863,49.72500228881836,26.250001907348633
1694672570993312500,19.5413125,9.1875,50.08125305175781,26.062501907348633
1694672571013316400,19.56131640625,8.662500381469727,49.91250228881836,26.36250114440918
1694672571033310500,19.581310546875,8.568750381469727,49.89375305175781,25.950000762939453
1694672571053321000,19.601321044921875,8.68125057220459,50.00625228881836,26.568750381469727
1694672571073325300,19.6213251953125,8.15625,50.00625228881836,26.962501525878906
1694672571093324500,19.641324462890626,8.362500190734863,49.931251525878906,27.168750762939453
1694672571113331000,19.6613310546875,7.537500381469727,50.19375228881836,27.168750762939453
1694672571133320400,19.681320556640625,7.237500190734863,50.47500228881836,27.656251907348633
1694672571153330700,19.70133056640625,6.318750381469727,50.56875228881836,27.656251907348633
1694672571173334300,19.721334228515627,6.300000190734863,50.36250305175781,27.450000762939453
1694672571193333800,19.741333740234374,5.362500190734863,50.36250305175781,27.431251525878906
1694672571213335000,19.7613349609375,4.950000286102295,50.36250305175781,27.637500762939453
1694672571233328600,19.78132861328125,3.5812501907348633,50.26875305175781,26.906251907348633
1694672571253327000,19.8013271484375,2.8687500953674316,50.868751525878906,26.400001525878906
1694672571273333200,19.821333251953124,2.4375,50.493751525878906,25.481250762939453
1694672571293315000,19.841315185546875,1.5750000476837158,49.85625076293945,24.843751907348633
1694672571313308200,19.86130810546875,1.3875000476837158,50.118751525878906,24.731250762939453
1694672571333300000,19.881300048828123,1.1437500715255737,49.98750305175781,23.4375
1694672571353301000,19.901301025390627,1.03125,49.89375305175781,23.418750762939453
1694672571373305600,19.9213056640625,0.9187500476837158,49.16250228881836,22.59375
1694672571393305600,19.9413056640625,1.2375000715255737,49.61250305175781,22.61250114440918
1694672571413313000,19.96131298828125,1.3312500715255737,49.25625228881836,22.293750762939453
1694672571433307600,19.9813076171875,1.0125000476837158,49.42500305175781,21.993751525878906
1694672571453318000,20.00131787109375,1.8375000953674316,49.05000305175781,21.28125
1694672571473333000,20.0213330078125,2.2687501907348633,49.23750305175781,21.506250381469727
1694672571493329200,20.0413291015625,3.6187500953674316,48.88125228881836,21.618751525878906
1694672571513332500,20.06133251953125,3.3000001907348633,49.06875228881836,21.412500381469727
1694672571533323300,20.0813232421875,4.650000095367432,48.63750076293945,21.712501525878906
1694672571553333000,20.1013330078125,4.856250286102295,48.281253814697266,22.125
1694672571573334300,20.121334228515625,5.700000286102295,48.39375305175781,22.631250381469727
1694672571593323500,20.141323486328126,5.925000190734863,48.48750305175781,23.25
1694672571613322000,20.161322021484374,6.431250095367432,48.937503814697266,23.0625
1694672571633324800,20.18132470703125,7.068750381469727,48.58125305175781,23.475000381469727
1694672571653326000,20.201326171875,7.275000095367432,48.243751525878906,24.075000762939453
1694672571673323000,20.221322998046876,6.975000381469727,48.41250228881836,23.775001525878906
1694672571693313000,20.24131298828125,7.087500095367432,48.35625076293945,24.468751907348633
1694672571713323800,20.26132373046875,6.862500190734863,48,24.562501907348633
1694672571733316900,20.28131689453125,6.768750190734863,48.093753814697266,24.86250114440918
1694672571753330000,20.301329833984376,6.656250476837158,47.71875,24.056251525878906
1694672571773336300,20.32133642578125,6.656250476837158,48.07500076293945,24.356250762939453
1694672571793325600,20.34132568359375,6.975000381469727,47.45625305175781,24.356250762939453
1694672571813335300,20.361335205078124,6.975000381469727,47.38125228881836,24.543750762939453
1694672571833332000,20.38133203125,7.181250095367432,46.931251525878906,24.637500762939453
1694672571853332000,20.40133203125,6.768750190734863,46.743751525878906,24.412500381469727
1694672571873333000,20.4213330078125,6.862500190734863,46.837501525878906,24.431251525878906
1694672571893336000,20.441336181640626,6.450000286102295,46.66875076293945,24.525001525878906
1694672571913334300,20.461334228515625,6.862500190734863,45.86250305175781,24.20625114440918
1694672571933328400,20.481328369140623,6.243750095367432,45.95625305175781,24.39375114440918
1694672571953323800,20.50132373046875,6.131250381469727,46.38750076293945,24.20625114440918
1694672571973316900,20.52131689453125,6.225000381469727,45.86250305175781,24.281251907348633
1694672571993306600,20.541306640625,6.656250476837158,45.67500305175781,24.093751907348633
1694672572013307400,20.561307373046876,6.337500095367432,45.50625228881836,24.375001907348633
1694672572033304300,20.58130419921875,7.368750095367432,45.60000228881836,24.20625114440918
1694672572053316400,20.60131640625,7.575000286102295,45.150001525878906,24.281251907348633
1694672572073322000,20.621322021484374,7.575000286102295,45.41250228881836,24.30000114440918
1694672572093322200,20.641322265625,7.593750476837158,45.337501525878906,24.600000381469727
1694672572113329700,20.66132958984375,8.943750381469727,45.431251525878906,24.712501525878906
1694672572133319700,20.681319580078124,8.4375,45.09375,25.406251907348633
1694672572153330400,20.701330322265626,9.46875,45.54375076293945,25.23750114440918
1694672572173334500,20.72133447265625,9.787500381469727,45.39375305175781,26.043750762939453
1694672572193325600,20.74132568359375,9.262500762939453,45.91875076293945,26.043750762939453
1694672572213336000,20.761336181640626,9.393750190734863,45.75,26.64375114440918
1694672572233330000,20.781329833984376,9.075000762939453,46.556251525878906,26.475000381469727
1694672572253328600,20.80132861328125,9.506250381469727,46.556251525878906,26.887500762939453
1694672572273326800,20.821326904296875,9.28125,46.462501525878906,26.775001525878906
1694672572293310700,20.841310791015626,9.506250381469727,47.17500305175781,27.000001907348633
1694672572313305000,20.86130517578125,9.393750190734863,47.45625305175781,27.000001907348633
1694672572333297200,20.881297119140626,8.981250762939453,47.8125,27.20625114440918
1694672572353299500,20.901299560546875,9.61875057220459,47.98125076293945,27.01875114440918
1694672572373304600,20.9213046875,9.09375,47.90625,27.525001525878906
1694672572393305000,20.94130517578125,9.09375,48.50625228881836,27.037500381469727
1694672572413312800,20.961312744140624,9.393750190734863,48.41250228881836,26.625001907348633
1694672572433307400,20.981307373046874,9.300000190734863,48.41250228881836,26.83125114440918
1694672572453317600,21.001317626953124,9.300000190734863,48.95625305175781,26.73750114440918
1694672572473332700,21.021332763671875,9.1875,49.125003814697266,26.437501907348633
1694672572493329000,21.041328857421874,9.206250190734863,49.125003814697266,26.850000381469727
1694672572513332700,21.061332763671874,8.68125057220459,49.743751525878906,26.45625114440918
1694672572533324000,21.081323974609376,8.981250762939453,49.38750076293945,26.850000381469727
1694672572553338400,21.10133837890625,9.09375,49.837501525878906,26.45625114440918
1694672572573338400,21.12133837890625,8.981250762939453,49.743751525878906,26.756250381469727
1694672572593334000,21.141333984375,8.981250762939453,49.91250228881836,26.36250114440918
1694672572613329700,21.16132958984375,8.456250190734863,50.00625228881836,26.156251907348633
1694672572633322200,21.181322265625,8.887500762939453,50.17500305175781,26.36250114440918
1694672572653331500,21.20133154296875,8.77500057220459,50.26875305175781,26.17500114440918
1694672572673326600,21.22132666015625,9.1875,50.437503814697266,25.762500762939453
1694672572693315000,21.241315185546874,9.506250381469727,50.08125305175781,25.968751907348633
1694672572713324800,21.26132470703125,9.393750190734863,50.062503814697266,25.462501525878906
1694672572733328400,21.281328369140624,9.487500190734863,50.32500076293945,25.068750381469727
1694672572753338600,21.301338623046874,10.012500762939453,50.156253814697266,24.975000381469727
1694672572773342200,21.32134228515625,10.21875,50.32500076293945,24.881250381469727
1694672572793329400,21.341329345703127,10.21875,50.868751525878906,24.787500381469727
1694672572813337300,21.36133740234375,10.106250762939453,50.062503814697266,25.068750381469727
1694672572833332200,21.381332275390626,11.043750762939453,50.41875076293945,24.993751525878906
1694672572853324000,21.401323974609376,11.137500762939453,50.23125076293945,24.375001907348633
1694672572873323800,21.42132373046875,10.818750381469727,50.56875228881836,23.887500762939453
1694672572893329000,21.441328857421876,11.4375,50.38125228881836,23.681251525878906
1694672572913328600,21.46132861328125,11.643750190734863,50.73750305175781,23.400001525878906
1694672572933317000,21.481317138671876,12.487500190734863,50.64375305175781,23.100000381469727
1694672572953315300,21.5013154296875,12.975000381469727,50.625003814697266,22.106250762939453
1694672572973310700,21.521310791015626,13.27500057220459,50.79375076293945,21.506250381469727
1694672572993306600,21.541306640625,13.687500953674316,50.41875076293945,21.09375
1694672573013310000,21.56131005859375,14.21250057220459,50.250003814697266,21.20625114440918
1694672573033307100,21.58130712890625,15.33750057220459,50.41875076293945,20.306251525878906
1694672573053319000,21.60131884765625,15.52500057220459,50.38125228881836,18.993751525878906
1694672573073324300,21.62132421875,15.843750953674316,49.85625076293945,18.993751525878906
1694672573093324300,21.64132421875,16.650001525878906,49.89375305175781,17.381250381469727
1694672573113331200,21.661331298828124,17.662500381469727,49.42500305175781,16.275001525878906
1694672573133320700,21.68132080078125,19.42500114440918,49.25625228881836,15.90000057220459
1694672573153331000,21.7013310546875,19.818750381469727,48.86250305175781,14.58750057220459
1694672573173334800,21.721334716796875,21.67500114440918,48.58125305175781,13.893750190734863
1694672573193326300,21.741326416015625,22.818750381469727,48.41250228881836,13.500000953674316
1694672573213341000,21.7613408203125,24.375001907348633,47.88750076293945,13.200000762939453
1694672573233323000,21.781322998046875,25.500001907348633,46.875,12.281250953674316
1694672573253323000,21.801322998046874,27.168750762939453,46.44375228881836,12.300000190734863
1694672573273322800,21.82132275390625,29.325000762939453,45.20625305175781,12.093750953674316
1694672573293307400,21.841307373046874,29.756250381469727,44.775001525878906,12.281250953674316
1694672573313316000,21.861316162109375,31.51875114440918,43.96875,11.887500762939453
1694672573333306000,21.88130615234375,32.13750076293945,43.70625305175781,12.093750953674316
1694672573353313000,21.90131298828125,33.28125,43.275001525878906,12.393750190734863
1694672573373326000,21.921326171875,33.48750305175781,43.275001525878906,12.300000190734863
1694672573393332200,21.941332275390625,33.69375228881836,43.01250076293945,12.187500953674316
1694672573413332500,21.96133251953125,33.07500076293945,43.20000076293945,12.787500381469727
1694672573433331700,21.981331787109376,33.1875,43.38750076293945,12.99375057220459
1694672573453334500,22.00133447265625,32.775001525878906,43.837501525878906,13.106250762939453
1694672573473343700,22.02134375,31.950000762939453,44.36250305175781,13.612500190734863
1694672573493346300,22.04134619140625,31.650001525878906,45,14.137500762939453
1694672573513346000,22.061345947265625,31.23750114440918,45.09375,14.437500953674316
1694672573533341400,22.081341552734376,30.506250381469727,45.1875,14.625000953674316
1694672573553343000,22.101343017578124,30.525001525878906,45.63750076293945,14.737500190734863
1694672573573345000,22.121344970703124,29.287500381469727,46.275001525878906,15.956250190734863
1694672573593329400,22.141329345703124,27.431251525878906,46.837501525878906,16.950000762939453
1694672573613325300,22.1613251953125,27.037500381469727,47.64375305175781,17.475000381469727
1694672573633318000,22.18131787109375,25.593751907348633,47.92500305175781,18.262500762939453
1694672573653308700,22.20130859375,25.500001907348633,48.20625305175781,18.787500381469727
1694672573673309200,22.22130908203125,24.262500762939453,48.468753814697266,19.275001525878906
1694672573693302000,22.241302001953127,22.70625114440918,49.01250076293945,19.875
1694672573713315600,22.261315673828125,21.67500114440918,49.650001525878906,20.587501525878906
1694672573733322500,22.281322509765626,21.075000762939453,49.76250076293945,21.993751525878906
1694672573753335000,22.3013349609375,20.36250114440918,49.76250076293945,22.087501525878906
1694672573773340400,22.32134033203125,19.33125114440918,49.70625305175781,23.587501525878906
1694672573793329000,22.341328857421875,18.9375,50.062503814697266,23.887500762939453
1694672573813338000,22.361338134765624,16.96875,50.17500305175781,24.67500114440918
1694672573833333500,22.38133349609375,16.875,50.00625228881836,24.95625114440918
1694672573853326300,22.401326416015625,16.14375114440918,50.55000305175781,25.781251907348633
1694672573873330400,22.421330322265625,15.112500190734863,50.28750228881836,26.26875114440918
1694672573893334000,22.441333984375,13.687500953674316,50.587501525878906,27.150001525878906
1694672573913332700,22.461332763671876,13.36875057220459,50.400001525878906,27.131250381469727
1694672573933320000,22.48131982421875,12.956250190734863,50.75625228881836,27.76875114440918
1694672573953317400,22.5013173828125,12.018750190734863,50.75625228881836,27.637500762939453
1694672573973317400,22.5213173828125,12.037500381469727,50.681251525878906,27.937501907348633
1694672573993307600,22.5413076171875,11.925000190734863,50.75625228881836,27.731250762939453
1694672574013311000,22.56131103515625,10.875,50.66250228881836,27.825000762939453
1694672574033306400,22.581306396484376,10.55625057220459,50.73750305175781,27.318750381469727
1694672574053318100,22.601318115234374,9.84375,50.56875228881836,27.600000381469727
1694672574073323500,22.621323486328127,9.637500762939453,50.306251525878906,27.281251907348633
1694672574093323300,22.6413232421875,9.9375,50.28750228881836,27.187501907348633
1694672574113330400,22.661330322265623,10.96875,50.36250305175781,26.400001525878906
1694672574133331700,22.681331787109375,10.96875,51.07500076293945,26.212501525878906
1694672574153339400,22.70133935546875,11.981250762939453,50.79375076293945,25.42500114440918
1694672574173341000,22.7213408203125,12.093750953674316,51.056251525878906,25.23750114440918
1694672574193331000,22.7413310546875,11.68125057220459,51.31875228881836,25.031251907348633
1694672574213337300,22.76133740234375,12.787500381469727,50.47500228881836,23.512500762939453
1694672574233330200,22.781330078125,13.537500381469727,49.968753814697266,24.11250114440918
1694672574253321500,22.801321533203126,14.156250953674316,50.66250228881836,23.83125114440918
1694672574273309700,22.821309814453127,13.312500953674316,50.75625228881836,23.625
1694672574293297000,22.841296875,14.456250190734863,50.66250228881836,23.53125
1694672574313296600,22.861296630859375,15.90000057220459,49.931251525878906,22.725000381469727
1694672574333291800,22.881291748046873,14.662500381469727,50.306251525878906,23.025001525878906
1694672574353303000,22.901302978515623,15.468750953674316,50.17500305175781,21.412500381469727
1694672574373319400,22.9213193359375,16.481250762939453,49.89375305175781,20.71875
1694672574393316900,22.94131689453125,18.337501525878906,49.687503814697266,18.825000762939453
1694672574413321700,22.96132177734375,19.14375114440918,49.29375076293945,17.306251525878906
1694672574433320200,22.9813203125,20.0625,49.01250076293945,16.818750381469727
1694672574453315800,23.00131591796875,21.618751525878906,48.375003814697266,16.106250762939453
1694672574473330700,23.02133056640625,22.3125,48.01875305175781,15.206250190734863
1694672574493338000,23.041338134765624,23.981250762939453,47.75625228881836,15.52500057220459
1694672574513331500,23.06133154296875,24.825000762939453,47.92500305175781,15.037500381469727
1694672574533325300,23.0813251953125,25.837501525878906,46.85625076293945,14.606250762939453
1694672574553321000,23.101321044921875,26.962501525878906,46.38750076293945,13.800000190734863
1694672574573324500,23.121324462890627,27.900001525878906,46.125,13.518750190734863
1694672574593315800,23.14131591796875,28.51875114440918,45.48750305175781,12.487500190734863
1694672574613316400,23.16131640625,29.531251907348633,44.66250228881836,11.981250762939453
1694672574633313300,23.181313232421875,29.83125114440918,44.66250228881836,11.475000381469727
1694672574653310200,23.201310302734374,30.562501907348633,44.13750076293945,11.268750190734863
1694672574673302000,23.221302001953124,31.087501525878906,44.04375076293945,11.381250381469727
1694672574693297700,23.241297607421874,31.61250114440918,43.51875305175781,11.77500057220459
1694672574713313500,23.2613134765625,32.75625228881836,42.65625,12.075000762939453
1694672574733322000,23.281322021484375,33.78750228881836,42.48750305175781,12.281250953674316
1694672574753335600,23.30133544921875,33.67500305175781,42.20625305175781,12.168750762939453
1694672574773341400,23.321341552734374,33.993751525878906,42.48750305175781,12.487500190734863
1694672574793330200,23.341330078125,32.56875228881836,42.9375,13.08750057220459
1694672574813339100,23.361339111328125,34.125,42.78750228881836,13.500000953674316
1694672574833334300,23.381334228515627,33.50625228881836,43.3125,13.706250190734863
1694672574853326600,23.40132666015625,34.33125305175781,42.69375228881836,13.593750953674316
1694672574873324000,23.421323974609376,33.39375305175781,41.98125076293945,13.36875057220459
1694672574893329200,23.4413291015625,34.85625076293945,42.35625076293945,13.800000190734863
1694672574913324500,23.461324462890627,34.85625076293945,41.83125305175781,14.287500381469727
1694672574933313800,23.481313720703124,34.556251525878906,42.1875,14.30625057220459
1694672574953313000,23.50131298828125,35.38125228881836,42.1875,14.512500762939453
1694672574973326000,23.521326171875,34.33125305175781,42.35625076293945,13.893750190734863
1694672574993314800,23.541314697265626,34.44375228881836,42.45000076293945,14.512500762939453
1694672575013321000,23.561321044921876,34.23750305175781,42.618751525878906,14.21250057220459
1694672575033314300,23.581314208984374,34.23750305175781,42.35625076293945,14.30625057220459
1694672575053323800,23.60132373046875,34.35000228881836,42.900001525878906,14.812500953674316
1694672575073327400,23.621327392578124,32.79375076293945,43.16250228881836,15.018750190734863
1694672575093325800,23.641325927734375,32.79375076293945,43.53750228881836,15.412500381469727
1694672575113331700,23.661331787109376,31.481250762939453,44.71875,16.856250762939453
1694672575133320700,23.68132080078125,31.275001525878906,45.26250076293945,17.36250114440918
1694672575153330400,23.701330322265626,29.212501525878906,45.97500228881836,17.568750381469727
1694672575173327600,23.72132763671875,28.912500381469727,46.16250228881836,18.262500762939453
1694672575193323500,23.741323486328124,26.418750762939453,46.51875305175781,18.543750762939453
1694672575213332000,23.76133203125,27.468751907348633,47.0625,19.087501525878906
1694672575233326800,23.781326904296876,25.42500114440918,47.98125076293945,20.887500762939453
1694672575253333500,23.80133349609375,25.837501525878906,47.73750305175781,21.09375
1694672575273319400,23.8213193359375,24.806251525878906,48.07500076293945,21.09375
1694672575293304600,23.8413046875,23.775001525878906,48.63750076293945,22.106250762939453
1694672575313304800,23.861304931640625,22.856250762939453,48.993751525878906,22.40625
1694672575333297000,23.881296875,21.712501525878906,49.44375228881836,23.306251525878906
1694672575353306400,23.901306396484376,20.475000381469727,49.44375228881836,23.381250381469727
1694672575373321500,23.921321533203123,20.400001525878906,49.91250228881836,24.806251525878906
1694672575393318100,23.941318115234374,18.84375,50.28750228881836,25.70625114440918
1694672575413322500,23.961322509765626,18.243751525878906,50.92500305175781,26.025001525878906
1694672575433313800,23.981313720703124,15.543750762939453,51.11250305175781,26.981250762939453
1694672575453321700,24.00132177734375,15.656250953674316,50.92500305175781,26.793750762939453
1694672575473335300,24.021335205078124,13.687500953674316,51.54375076293945,27.187501907348633
1694672575493341400,24.041341552734377,12.843750953674316,51.187503814697266,26.868751525878906
1694672575513335600,24.06133544921875,10.36875057220459,50.83125305175781,27.318750381469727
1694672575533332700,24.081332763671874,10.987500190734863,51.375003814697266,27.543750762939453
1694672575553337300,24.10133740234375,10.575000762939453,51.281253814697266,27.637500762939453
1694672575573329200,24.1213291015625,9.731250762939453,51.281253814697266,27.937501907348633
1694672575593318400,24.141318359375,9.018750190734863,51.281253814697266,27.806251525878906
1694672575613321000,24.161321044921873,8.381250381469727,51.281253814697266,27.693750381469727
1694672575633315300,24.1813154296875,8.606250762939453,51.187503814697266,27.693750381469727
1694672575653308000,24.201307861328125,7.556250095367432,51.093753814697266,27.787500381469727
1694672575673315600,24.221315673828126,7.762500286102295,50.73750305175781,27.168750762939453
1694672575693308000,24.241307861328124,8.381250381469727,51.01875305175781,27.900001525878906
1694672575713320400,24.261320556640626,7.875000476837158,51.01875305175781,27.787500381469727
1694672575733326600,24.28132666015625,8.381250381469727,51.01875305175781,27.993751525878906
1694672575753338400,24.30133837890625,7.556250095367432,51.187503814697266,28.087501525878906
1694672575773342700,24.3213427734375,8.793750762939453,50.56875228881836,27.787500381469727
1694672575793330700,24.34133056640625,8.606250762939453,50.75625228881836,27.881250381469727
1694672575813339100,24.361339111328125,8.606250762939453,50.75625228881836,28.106250762939453
1694672575833323500,24.381323486328125,8.081250190734863,50.73750305175781,27.787500381469727
1694672575853318100,24.401318115234375,9.225000381469727,50.73750305175781,27.600000381469727
1694672575873317400,24.4213173828125,10.987500190734863,50.83125305175781,27.731250762939453
1694672575893324500,24.441324462890623,10.668750762939453,50.66250228881836,27.525001525878906
1694672575913326300,24.461326416015623,10.668750762939453,50.587501525878906,27.712501525878906
1694672575933315600,24.481315673828124,11.081250190734863,50.400001525878906,27.712501525878906
1694672575953314600,24.501314453125,11.606250762939453,50.56875228881836,27.431251525878906
1694672575973310000,24.52131005859375,11.925000190734863,50.775001525878906,28.256250381469727
1694672575993306400,24.541306396484377,11.30625057220459,50.681251525878906,28.031251907348633
1694672576013315000,24.561315185546874,12.768750190734863,50.70000076293945,28.556251525878906
1694672576033311200,24.581311279296877,13.27500057220459,50.51250076293945,28.162500381469727
1694672576053322200,24.601322265625,13.800000190734863,50.32500076293945,28.162500381469727
1694672576073326600,24.62132666015625,14.006250381469727,50.962501525878906,28.181251525878906
1694672576093325800,24.641325927734375,15.037500381469727,50.775001525878906,27.881250381469727
1694672576113332200,24.661332275390624,15.037500381469727,50.75625228881836,27.375001907348633
1694672576133332700,24.681332763671875,15.768750190734863,50.32500076293945,27.281251907348633
1694672576153340200,24.701340087890625,16.387500762939453,50.41875076293945,27.693750381469727
1694672576173334500,24.72133447265625,16.481250762939453,50.41875076293945,27.281251907348633
1694672576193340000,24.74133984375,17.73750114440918,50.51250076293945,27.20625114440918
1694672576213344000,24.761343994140624,17.625,50.493751525878906,26.812501907348633
1694672576233335600,24.78133544921875,18.76875114440918,50.23125076293945,26.718751907348633
1694672576253324300,24.80132421875,19.181251525878906,50.13750076293945,26.625001907348633
1694672576273322500,24.821322509765626,19.80000114440918,50.212501525878906,26.212501525878906
1694672576293320000,24.84131982421875,20.625,50.306251525878906,25.931251525878906
1694672576313311700,24.861311767578126,20.006250381469727,49.95000076293945,25.818750381469727
1694672576333309000,24.881308837890625,21.450000762939453,50.212501525878906,25.743751525878906
1694672576353314600,24.901314453125,22.481250762939453,49.593753814697266,25.631250381469727
1694672576373326800,24.921326904296876,23.418750762939453,49.51875305175781,25.743751525878906
1694672576393332200,24.941332275390625,23.118751525878906,49.593753814697266,25.33125114440918
1694672576413332200,24.961332275390625,24.562501907348633,49.16250228881836,25.350000381469727
1694672576433321000,24.981321044921874,25.087501525878906,49.25625228881836,25.368751525878906
1694672576453326000,25.001326171875,25.912500381469727,48.82500076293945,25.875001907348633
1694672576473337300,25.02133740234375,26.531251907348633,48.993751525878906,25.481250762939453
1694672576493342000,25.041342041015625,26.531251907348633,48.618751525878906,24.95625114440918
1694672576513334300,25.061334228515626,27.562501907348633,48.35625076293945,24.975000381469727
1694672576533331000,25.0813310546875,27.975000381469727,48.431251525878906,24.468751907348633
1694672576553335300,25.101335205078126,28.912500381469727,47.83125305175781,25.275001525878906
1694672576573334800,25.121334716796873,28.80000114440918,47.8125,24.468751907348633
1694672576593323300,25.1413232421875,29.83125114440918,47.45625305175781,24.075000762939453
1694672576613320700,25.16132080078125,29.306251525878906,47.36250305175781,23.756250381469727
1694672576633315300,25.1813154296875,29.83125114440918,46.931251525878906,24.150001525878906
1694672576653307100,25.20130712890625,31.80000114440918,46.5,24.168750762939453
1694672576673315800,25.22131591796875,31.912500381469727,46.3125,24.168750762939453
1694672576693307600,25.2413076171875,32.53125,45.88125228881836,24.375001907348633
1694672576713320400,25.261320556640626,32.625,46.14375305175781,23.962501525878906
1694672576733326300,25.281326416015624,33.88125228881836,45.88125228881836,24.281251907348633
1694672576753337900,25.301337890625,34.61250305175781,45.712501525878906,24.281251907348633
1694672576773342500,25.321342529296874,34.29375076293945,45.26250076293945,24.375001907348633
1694672576793341700,25.341341796875,34.70625305175781,45.243751525878906,23.568750381469727
1694672576813347600,25.36134765625,34.89375305175781,45.056251525878906,22.856250762939453
1694672576833340200,25.381340087890624,34.98750305175781,44.60625076293945,22.350000381469727
1694672576853333800,25.401333740234374,36.13125228881836,44.4375,22.668750762939453
1694672576873328600,25.42132861328125,35.92500305175781,44.08125305175781,22.443750381469727
1694672576893339000,25.4413388671875,36.63750076293945,43.80000305175781,22.03125
1694672576913328000,25.461328125,36.95625305175781,43.53750228881836,22.03125
1694672576933315600,25.481315673828124,36.95625305175781,43.63125228881836,22.350000381469727
1694672576953313300,25.501313232421875,36.337501525878906,43.368751525878906,22.537500381469727
1694672576973309000,25.521308837890626,38.212501525878906,42.9375,22.856250762939453
1694672576993303600,25.541303466796876,38.53125,42.50625228881836,23.137500762939453
1694672577013312000,25.56131201171875,38.41875076293945,42.41250228881836,23.137500762939453
1694672577033307600,25.5813076171875,37.80000305175781,42.150001525878906,23.325000762939453
1694672577053319400,25.6013193359375,38.625,41.79375076293945,23.325000762939453
1694672577073324300,25.62132421875,39.35625076293945,41.90625,23.64375114440918
1694672577093324000,25.641323974609374,38.625,41.79375076293945,23.025001525878906
1694672577113331000,25.6613310546875,38.53125,42.243751525878906,23.53125
1694672577133332000,25.68133203125,37.78125,42.67500305175781,22.837501525878906
1694672577153339600,25.701339599609376,38.212501525878906,42.86250305175781,23.55000114440918
1694672577173334300,25.721334228515627,37.087501525878906,43.38750076293945,23.25
1694672577193333000,25.7413330078125,36.243751525878906,43.556251525878906,22.931251525878906
1694672577213339000,25.7613388671875,35.73750305175781,43.85625076293945,24.056251525878906
1694672577233331200,25.781331298828125,34.06875228881836,44.28750228881836,23.64375114440918
1694672577253321700,25.80132177734375,34.48125076293945,44.45625305175781,24.056251525878906
1694672577273322200,25.821322265625,33.056251525878906,45.45000076293945,24.562501907348633
1694672577293307000,25.841306884765626,32.94375228881836,45.525001525878906,24.262500762939453
1694672577313302000,25.861302001953124,31.275001525878906,46.76250076293945,24.075000762939453
1694672577333302300,25.88130224609375,30.356250762939453,46.85625076293945,24.76875114440918
1694672577353310200,25.901310302734377,28.687501907348633,47.19375228881836,24.543750762939453
1694672577373324300,25.92132421875,28.70625114440918,47.306251525878906,25.368751525878906
1694672577393331000,25.9413310546875,28.912500381469727,47.32500076293945,25.875001907348633
1694672577413332000,25.96133203125,27.375001907348633,48.30000305175781,26.287500381469727
1694672577433320700,25.98132080078125,26.775001525878906,48.58125305175781,27.187501907348633
1694672577453326300,26.001326416015626,26.043750762939453,48.243751525878906,27.468751907348633
1694672577473337900,26.021337890625,25.312501907348633,48.60000228881836,27.975000381469727
1694672577493324500,26.041324462890625,24.618751525878906,48.712501525878906,29.17500114440918
1694672577513330000,26.061329833984374,23.15625,48.88125228881836,29.062501907348633
1694672577533328600,26.08132861328125,24,48.656253814697266,29.962501525878906
1694672577553334300,26.101334228515626,22.96875,49.10625076293945,30.67500114440918
1694672577573327000,26.1213271484375,22.05000114440918,48.843753814697266,31.256250381469727
1694672577593317000,26.141317138671877,21.037500381469727,49.406253814697266,32.36250305175781
1694672577613305000,26.16130517578125,21.450000762939453,48.88125228881836,32.868751525878906
1694672577633303600,26.181303466796876,20.306251525878906,49.16250228881836,33.5625
1694672577653299000,26.201298828125,19.575000762939453,48.806251525878906,33.45000076293945
1694672577673311000,26.22131103515625,19.181251525878906,48.91875076293945,33.95625305175781
1694672577693305000,26.24130517578125,18.337501525878906,49.16250228881836,33.73125076293945
1694672577713319400,26.2613193359375,17.92500114440918,49.087501525878906,34.23750305175781
1694672577733326300,26.281326416015624,17.118751525878906,49.35000228881836,34.53750228881836
1694672577753338600,26.301338623046874,17.118751525878906,49.181251525878906,34.53750228881836
1694672577773343700,26.32134375,16.5,49.181251525878906,35.32500076293945
1694672577793331500,26.34133154296875,16.481250762939453,48.73125076293945,35.00625228881836
1694672577813340200,26.361340087890625,16.275001525878906,49.181251525878906,34.91250228881836
1694672577833334800,26.381334716796875,15.975000381469727,48.91875076293945,34.81875228881836
1694672577853341400,26.401341552734376,16.70625114440918,48.750003814697266,35.118751525878906
1694672577873335000,26.4213349609375,17.212501525878906,48.656253814697266,34.91250228881836
1694672577893325800,26.441325927734376,17.418750762939453,48.562503814697266,34.91250228881836
1694672577913318100,26.461318115234373,18.262500762939453,48.76875305175781,35.23125076293945
1694672577933309400,26.481309326171875,19.293750762939453,48.48750305175781,34.95000076293945
1694672577953318000,26.50131787109375,20.943750381469727,48.13125228881836,34.85625076293945
1694672577973313300,26.521313232421875,20.962501525878906,48.056251525878906,35.15625
1694672577993312300,26.541312255859374,21.787500381469727,48.056251525878906,34.875
1694672578013319200,26.561319091796875,21.67500114440918,47.625,35.26875305175781
1694672578033313000,26.58131298828125,22.087501525878906,48.056251525878906,34.76250076293945
1694672578053323000,26.601322998046875,22.931251525878906,47.71875,35.08125305175781
1694672578073326800,26.621326904296875,23.137500762939453,47.51250076293945,34.76250076293945
1694672578093325600,26.64132568359375,23.325000762939453,47.60625076293945,34.368751525878906
1694672578113331700,26.661331787109376,23.4375,47.51250076293945,34.368751525878906
