time,seconds_elapsed,z,y,x
1694728320132100400,0.133100341796875,-27.993751525878906,-13.631250381469727,34.21875
1694728320152104700,0.153104736328125,-29.36250114440918,-13.912500381469727,33.78750228881836
1694728320172116000,0.173115966796875,-29.568750381469727,-14.250000953674316,34.462501525878906
1694728320192140800,0.193140869140625,-29.868751525878906,-14.86875057220459,35.15625
1694728320212173600,0.213173583984375,-28.912500381469727,-15.281250953674316,35.45625305175781
1694728320232208100,0.2332080078125,-28.837501525878906,-16.443750381469727,35.13750076293945
1694728320252239000,0.253239013671875,-28.818750381469727,-16.856250762939453,36.525001525878906
1694728320272268000,0.27326806640625,-29.025001525878906,-17.381250381469727,36.806251525878906
1694728320292283100,0.293283203125,-27.86250114440918,-18.075000762939453,37.61250305175781
1694728320312282000,0.3132822265625,-28.162500381469727,-18.412500381469727,38.118751525878906
1694728320332290800,0.333290771484375,-28.593751907348633,-18.48750114440918,38.400001525878906
1694728320352291000,0.353291015625,-29.118751525878906,-18.76875114440918,38.493751525878906
1694728320372285200,0.37328515625,-30.037500381469727,-19.368751525878906,39.056251525878906
1694728320392267000,0.39326708984375,-29.306251525878906,-18.9375,38.98125076293945
1694728320412247600,0.41324755859375,-30.337501525878906,-19.275001525878906,39.67500305175781
1694728320432239600,0.433239501953125,-30.543750762939453,-18.5625,39.28125
1694728320452241700,0.45324169921875,-32.51250076293945,-18.5625,39.76875305175781
1694728320472246300,0.473246337890625,-31.762500762939453,-17.043750762939453,40.51875305175781
1694728320492246300,0.493246337890625,-31.968751907348633,-16.575000762939453,41.64375305175781
1694728320512242000,0.513241943359375,-32.88750076293945,-16.293750762939453,42.03750228881836
1694728320532246000,0.53324609375,-32.45625305175781,-15.656250953674316,42.35625076293945
1694728320552245200,0.553245361328125,-32.98125076293945,-16.181251525878906,42.54375076293945
1694728320572252000,0.573251953125,-33.09375,-16.481250762939453,41.51250076293945
1694728320592253200,0.593253173828125,-33.84375,-17.8125,41.36250305175781
1694728320612249900,0.613249755859375,-33.01875305175781,-18.356250762939453,40.96875
1694728320632246500,0.63324658203125,-32.8125,-20.137500762939453,40.61250305175781
1694728320652249900,0.653249755859375,-32.92500305175781,-21.11250114440918,40.59375
1694728320672257800,0.6732578125,-30.86250114440918,-22.89375114440918,40.57500076293945
1694728320692259800,0.693259765625,-30.86250114440918,-24.39375114440918,40.51875305175781
1694728320712263400,0.713263427734375,-29.231250762939453,-25.125001907348633,39.525001525878906
1694728320732258800,0.7332587890625,-28.818750381469727,-26.906251907348633,39.375
1694728320752251000,0.7532509765625,-28.42500114440918,-27.281251907348633,37.95000076293945
1694728320772253000,0.7732529296875,-28.33125114440918,-28.368751525878906,37.3125
1694728320792250000,0.79325,-27.20625114440918,-29.08125114440918,36.91875076293945
1694728320812239600,0.813239501953125,-25.781251907348633,-29.83125114440918,34.98750305175781
1694728320832232000,0.83323193359375,-25.51875114440918,-30.431251525878906,32.15625
1694728320852240600,0.85324072265625,-26.17500114440918,-31.631250381469727,30.693750381469727
1694728320872244000,0.873243896484375,-26.718751907348633,-32.66250228881836,28.743751525878906
1694728320892254000,0.89325390625,-27.918750762939453,-32.04375076293945,25.012500762939453
1694728320912246300,0.913246337890625,-29.006250381469727,-32.92500305175781,22.23750114440918
1694728320932247300,0.933247314453125,-30.093751907348633,-32.73750305175781,18.900001525878906
1694728320952255200,0.953255126953125,-30.168750762939453,-33.11250305175781,14.456250190734863
1694728320972250600,0.973250732421875,-31.031251907348633,-34.181251525878906,10.875
1694728320992263200,0.99326318359375,-30.11250114440918,-34.181251525878906,4.03125
1694728321012266500,1.0132666015625,-29.156251907348633,-35.19375228881836,-1.4250000715255737
1694728321032257300,1.03325732421875,-27.918750762939453,-34.6875,-9.46875
1694728321052257500,1.053257568359375,-25.89375114440918,-33.35625076293945,-13.74375057220459
1694728321072252700,1.073252685546875,-26.287500381469727,-30.337501525878906,-20.118751525878906
1694728321092244700,1.09324462890625,-25.98750114440918,-28.162500381469727,-22.162500381469727
1694728321112236500,1.113236572265625,-26.437501907348633,-25.293750762939453,-24.825000762939453
1694728321132236000,1.133236083984375,-25.743751525878906,-21.131250381469727,-29.025001525878906
1694728321152239600,1.153239501953125,-24.525001525878906,-18.637500762939453,-31.875001907348633
1694728321172238600,1.173238525390625,-23.73750114440918,-14.362500190734863,-35.36250305175781
1694728321192245200,1.193245361328125,-21.975000381469727,-11.756250381469727,-37.181251525878906
1694728321212246500,1.21324658203125,-21.5625,-7.800000190734863,-38.88750076293945
1694728321232247000,1.2332470703125,-20.850000381469727,-5.34375,-40.3125
1694728321252251000,1.2532509765625,-19.70625114440918,-4.537500381469727,-40.087501525878906
1694728321272261000,1.27326123046875,-19.912500381469727,-2.7750000953674316,-40.837501525878906
1694728321292264700,1.2932646484375,-18.76875114440918,-2.34375,-41.00625228881836
1694728321312255200,1.313255126953125,-20.212501525878906,-0.8437500596046448,-41.38125228881836
1694728321332258300,1.33325830078125,-20.4375,0.4687500298023224,-41.962501525878906
1694728321352260900,1.3532607421875,-21.131250381469727,1.0875000953674316,-41.34375
1694728321372258600,1.373258544921875,-21.243751525878906,0.65625,-40.76250076293945
1694728321392245200,1.393245361328125,-21.01875114440918,0.9375000596046448,-40.33125305175781
1694728321412230400,1.41323046875,-21.84375,2.1750001907348633,-40.125
1694728321432227300,1.433227294921875,-23.287500381469727,3.075000047683716,-39.712501525878906
1694728321452233200,1.453233154296875,-24.318750381469727,3,-39.11250305175781
1694728321472237000,1.473237060546875,-24.525001525878906,2.8312501907348633,-38.118751525878906
1694728321492240100,1.493240234375,-25.031251907348633,3.825000047683716,-38.00625228881836
1694728321512238300,1.51323828125,-24.918750762939453,4.706250190734863,-38.17500305175781
1694728321532244200,1.533244140625,-24.30000114440918,4.987500190734863,-37.96875
1694728321552244700,1.55324462890625,-22.856250762939453,6.975000381469727,-40.20000076293945
1694728321572252400,1.57325244140625,-21.412500381469727,8.981250762939453,-41.4375
1694728321592254200,1.593254150390625,-17.36250114440918,10.83750057220459,-42.63750076293945
1694728321612251000,1.6132509765625,-13.950000762939453,12.600000381469727,-43.650001525878906
1694728321632248600,1.63324853515625,-10.40625,15.787500381469727,-44.51250076293945
1694728321652242000,1.653241943359375,-8.4375,17.55000114440918,-45.03750228881836
1694728321672252000,1.673251953125,-7.781250476837158,19.350000381469727,-44.38125228881836
1694728321692255700,1.693255859375,-7.781250476837158,20.587501525878906,-44.64375305175781
1694728321712254500,1.71325439453125,-7.031250476837158,21.9375,-43.89375305175781
1694728321732242000,1.733241943359375,-5.475000381469727,23.45625114440918,-43.51875305175781
1694728321752238600,1.753238525390625,-2.4562501907348633,23.92500114440918,-43.368751525878906
1694728321772256000,1.773256103515625,0.4312500059604645,24.168750762939453,-44.41875076293945
1694728321792253400,1.79325341796875,1.0500000715255737,23.64375114440918,-44.32500076293945
1694728321812243000,1.813242919921875,3.2250001430511475,22.481250762939453,-44.83125305175781
1694728321832234500,1.833234375,5.006250381469727,22.33125114440918,-44.51250076293945
1694728321852243500,1.853243408203125,6.243750095367432,22.78125,-44.17500305175781
1694728321872246000,1.87324609375,7.818750381469727,24.056251525878906,-43.51875305175781
1694728321892255500,1.89325537109375,10.237500190734863,24.618751525878906,-42.243751525878906
1694728321912247300,1.913247314453125,14.343750953674316,27.825000762939453,-39.375
1694728321932248000,1.933248046875,15.52500057220459,30.693750381469727,-38.26875305175781
1694728321952244500,1.953244384765625,13.593750953674316,35.34375,-36.150001525878906
1694728321972231000,1.97323095703125,13.93125057220459,36.54375076293945,-34.6875
1694728321992236500,1.993236572265625,14.568750381469727,37.16250228881836,-34.462501525878906
1694728322012246800,2.013246826171875,16.23750114440918,36.20625305175781,-34.368751525878906
1694728322032244000,2.033243896484375,17.0625,35.681251525878906,-33.97500228881836
1694728322052236800,2.05323681640625,17.26875114440918,35.32500076293945,-34.181251525878906
1694728322072228000,2.07322802734375,17.381250381469727,35.51250076293945,-33.76875305175781
1694728322092227800,2.093227783203125,16.125,36.20625305175781,-34.16250228881836
1694728322112226600,2.1132265625,15.731250762939453,36.84375,-33.65625
1694728322132234200,2.133234130859375,14.793750762939453,37.181251525878906,-33.54375076293945
1694728322152240000,2.153240234375,12.61875057220459,38.51250076293945,-33.13125228881836
1694728322172240600,2.17324072265625,10.631250381469727,39.30000305175781,-33.86250305175781
1694728322192248300,2.193248291015625,9.506250381469727,39.30000305175781,-33.375
1694728322212249900,2.213249755859375,9.825000762939453,39.48750305175781,-33.16875076293945
1694728322232239400,2.2332392578125,7.237500190734863,40.72500228881836,-33.16875076293945
1694728322252245500,2.25324560546875,6.712500095367432,40.53750228881836,-33.375
1694728322272246000,2.27324609375,5.568750381469727,40.181251525878906,-32.587501525878906
1694728322292253700,2.293253662109375,3.7125000953674316,40.89375305175781,-32.400001525878906
1694728322312247800,2.313247802734375,2.5687501430511475,41.17500305175781,-32.19375228881836
1694728322332254000,2.33325390625,1.3125,41.32500076293945,-32.41875076293945
1694728322352258600,2.353258544921875,0.07500000298023224,41.34375,-32.025001525878906
1694728322372257800,2.3732578125,-0.956250011920929,41.51250076293945,-31.837501525878906
1694728322392256800,2.3932568359375,-1.6687500476837158,41.868751525878906,-31.743751525878906
1694728322412240600,2.41324072265625,-2.71875,42.48750305175781,-31.931251525878906
1694728322432235300,2.4332353515625,-3.637500047683716,42.67500305175781,-31.33125114440918
1694728322452226800,2.453226806640625,-3.4125001430511475,42.50625228881836,-30.431251525878906
1694728322472220700,2.473220703125,-4.96875,42.88125228881836,-29.83125114440918
1694728322492238600,2.493238525390625,-5.681250095367432,43.25625228881836,-29.137500762939453
1694728322512237600,2.513237548828125,-6.187500476837158,43.96875,-28.61250114440918
1694728322532244000,2.533243896484375,-7.125000476837158,44.0625,-28.218751907348633
1694728322552256500,2.553256591796875,-6.600000381469727,44.41875076293945,-28.218751907348633
1694728322572250000,2.57325,-6.693750381469727,43.81875228881836,-27.712501525878906
1694728322592252200,2.593252197265625,-5.756250381469727,43.462501525878906,-27.506250381469727
1694728322612249600,2.61324951171875,-6.168750286102295,43.72500228881836,-27.506250381469727
1694728322632247600,2.63324755859375,-6.281250476837158,44.32500076293945,-28.200000762939453
1694728322652241200,2.6532412109375,-5.15625,43.89375305175781,-28.406251907348633
1694728322672239900,2.673239990234375,-3.5812501907348633,43.63125228881836,-28.293750762939453
1694728322692246500,2.69324658203125,-0.9000000357627869,43.35000228881836,-29.26875114440918
1694728322712239900,2.713239990234375,1.3687500953674316,42.82500076293945,-29.343751907348633
1694728322732242200,2.7332421875,2.606250047683716,42.97500228881836,-30.731250762939453
1694728322752240400,2.753240478515625,6.731250286102295,41.306251525878906,-31.23750114440918
1694728322772246500,2.77324658203125,7.556250095367432,40.29375076293945,-32.45625305175781
1694728322792247300,2.793247314453125,8.25,38.75625228881836,-33.69375228881836
1694728322812238800,2.81323876953125,9.90000057220459,37.95000076293945,-34.10625076293945
1694728322832232400,2.833232421875,11.34375,36.69375228881836,-35.13750076293945
1694728322852242200,2.8532421875,12.487500190734863,36.618751525878906,-35.025001525878906
1694728322872234500,2.873234375,13.518750190734863,35.73750305175781,-35.13750076293945
1694728322892247000,2.8932470703125,15.375000953674316,34.21875,-35.94375228881836
1694728322912241400,2.913241455078125,15.037500381469727,32.94375228881836,-36.39375305175781
1694728322932244500,2.933244384765625,16.912500381469727,32.15625,-36.28125
1694728322952254000,2.95325390625,18.787500381469727,31.556251525878906,-36.1875
1694728322972257000,2.973257080078125,19.818750381469727,31.575000762939453,-35.868751525878906
1694728322992257800,2.9932578125,20.45625114440918,31.33125114440918,-34.95000076293945
1694728323012262700,3.0132626953125,20.981250762939453,31.51875114440918,-34.931251525878906
1694728323032254500,3.03325439453125,20.15625,33.11250305175781,-34.5
1694728323052253200,3.053253173828125,18.618751525878906,34.06875228881836,-34.80000305175781
1694728323072239400,3.0732392578125,16.03125,36.375,-34.16250228881836
1694728323092235000,3.093235107421875,15.093750953674316,37.70625305175781,-34.03125
1694728323112227800,3.113227783203125,14.475000381469727,38.23125076293945,-34.33125305175781
1694728323132230100,3.133230224609375,15.937500953674316,37.80000305175781,-34.33125305175781
1694728323152236000,3.153236083984375,17.0625,36.65625,-34.33125305175781
1694728323172236500,3.173236572265625,18.825000762939453,34.78125,-34.275001525878906
1694728323192255700,3.193255859375,19.443750381469727,33.91875076293945,-34.181251525878906
1694728323212255200,3.213255126953125,20.793750762939453,34.275001525878906,-33.75
1694728323232254200,3.233254150390625,21.84375,34.21875,-33.22500228881836
1694728323252256300,3.25325634765625,21.225000381469727,34.03125,-32.94375228881836
1694728323272253700,3.273253662109375,20.400001525878906,34.556251525878906,-33.13125228881836
1694728323292258800,3.2932587890625,18.95625114440918,36.243751525878906,-33.11250305175781
1694728323312251000,3.3132509765625,17.625,37.40625,-32.306251525878906
1694728323332243700,3.33324365234375,17.625,38.118751525878906,-32.28750228881836
1694728323352249900,3.353249755859375,15.43125057220459,38.28750228881836,-32.306251525878906
1694728323372257800,3.3732578125,15.131250381469727,39.1875,-32.28750228881836
1694728323392256300,3.39325634765625,12.656250953674316,40.33125305175781,-31.781251907348633
1694728323412239600,3.413239501953125,12.468750953674316,41.23125076293945,-30.95625114440918
1694728323432234200,3.433234130859375,10.912500381469727,42.03750228881836,-30.843751907348633
1694728323452232200,3.453232177734375,10.18125057220459,42.03750228881836,-30.562501907348633
1694728323472221200,3.47322119140625,9.356250762939453,42.11250305175781,-30.562501907348633
1694728323492239000,3.493239013671875,7.162500381469727,42.82500076293945,-30.58125114440918
1694728323512237800,3.51323779296875,7.087500095367432,42.91875076293945,-30.168750762939453
1694728323532244200,3.533244140625,4.6875,43.89375305175781,-29.887500762939453
1694728323552256300,3.55325634765625,3.7687501907348633,44.08125305175781,-29.08125114440918
1694728323572250000,3.57325,2.6437501907348633,44.98125076293945,-28.762500762939453
1694728323592252000,3.593251953125,1.5,45.16875076293945,-28.462501525878906
1694728323612249300,3.613249267578125,0.7875000238418579,45.618751525878906,-28.162500381469727
1694728323632247600,3.63324755859375,-0.5437500476837158,45.712501525878906,-27.48750114440918
1694728323652242200,3.6532421875,-0.5437500476837158,45.09375,-27.281251907348633
1694728323672247600,3.67324755859375,-1.5750000476837158,45.806251525878906,-27.093751907348633
1694728323692252400,3.69325244140625,-2.71875,46.51875305175781,-26.26875114440918
1694728323712252000,3.713251953125,-3.843750238418579,46.81875228881836,-25.481250762939453
1694728323732251400,3.73325146484375,-3.637500047683716,46.63125228881836,-25.481250762939453
1694728323752246800,3.753246826171875,-4.368750095367432,47.08125305175781,-25.068750381469727
1694728323772246500,3.77324658203125,-4.987500190734863,46.53750228881836,-25.406251907348633
1694728323792248300,3.793248291015625,-4.875,46.72500228881836,-24.881250381469727
1694728323812239000,3.813239013671875,-4.668750286102295,46.63125228881836,-24.993751525878906
1694728323832232000,3.83323193359375,-5.306250095367432,46.80000305175781,-25.293750762939453
1694728323852241400,3.853241455078125,-5.925000190734863,46.368751525878906,-25.42500114440918
1694728323872233700,3.873233642578125,-5.625,45.993751525878906,-25.837501525878906
1694728323892246300,3.893246337890625,-4.275000095367432,46.06875228881836,-26.718751907348633
1694728323912241000,3.913240966796875,-1.5937501192092896,45.712501525878906,-27.281251907348633
1694728323932243700,3.93324365234375,0.16875000298023224,45.618751525878906,-27.562501907348633
1694728323952253400,3.95325341796875,1.068750023841858,38.08125305175781,-35.025001525878906
1694728323972256500,3.973256591796875,3.1125001907348633,37.275001525878906,-35.83125305175781
1694728323992248800,3.993248779296875,5.175000190734863,36.1875,-37.03125
1694728324012255700,4.013255859375,5.793750286102295,35.73750305175781,-37.35000228881836
1694728324032249300,4.033249267578125,7.125000476837158,35.47500228881836,-37.931251525878906
1694728324052240100,4.053240234375,8.68125057220459,34.3125,-38.15625
1694728324072228900,4.073228759765625,9.393750190734863,34.125,-38.962501525878906
1694728324092228400,4.093228271484375,10.83750057220459,32.868751525878906,-39.375
1694728324112223700,4.1132236328125,10.725000381469727,31.968751907348633,-39.91875076293945
1694728324132228600,4.133228515625,12.675000190734863,30.187501907348633,-40.931251525878906
1694728324152235800,4.15323583984375,13.612500190734863,29.64375114440918,-41.04375076293945
1694728324172237000,4.173237060546875,14.643750190734863,28.762500762939453,-41.15625
1694728324192245500,4.19324560546875,16.40625,27.806251525878906,-40.85625076293945
1694728324212247800,4.213247802734375,17.025001525878906,27.900001525878906,-40.63125228881836
1694728324232249600,4.23324951171875,18.262500762939453,27.450000762939453,-40.931251525878906
1694728324252253400,4.25325341796875,17.775001525878906,27.918750762939453,-40.01250076293945
1694728324272252200,4.273252197265625,16.21875,28.781251907348633,-40.3125
1694728324292258000,4.293258056640625,15.80625057220459,29.493751525878906,-40.40625
1694728324312250600,4.313250732421875,13.83750057220459,31.087501525878906,-40.38750076293945
1694728324332250400,4.33325048828125,12.487500190734863,31.70625114440918,-40.38750076293945
1694728324352255500,4.35325537109375,12.487500190734863,31.968751907348633,-40.38750076293945
1694728324372255200,4.373255126953125,13.612500190734863,31.33125114440918,-41.306251525878906
1694728324392267500,4.393267578125,14.437500953674316,30.168750762939453,-41.625
1694728324412248800,4.413248779296875,15.881250381469727,28.406251907348633,-41.64375305175781
1694728324432240600,4.43324072265625,17.850000381469727,27.975000381469727,-41.4375
1694728324452244500,4.453244384765625,19.012500762939453,28.162500381469727,-40.80000305175781
1694728324472230700,4.473230712890625,19.743751525878906,28.556251525878906,-39.97500228881836
1694728324492245200,4.493245361328125,19.668750762939453,28.481250762939453,-39.07500076293945
1694728324512241700,4.51324169921875,18.30000114440918,29.437501907348633,-39.97500228881836
1694728324532246000,4.53324609375,15.80625057220459,30.48750114440918,-40.181251525878906
1694728324552257000,4.553257080078125,13.612500190734863,31.350000381469727,-40.38750076293945
1694728324572249900,4.573249755859375,13.406250953674316,31.875001907348633,-40.78125
1694728324592251400,4.59325146484375,12.375000953674316,32.23125076293945,-40.275001525878906
1694728324612248300,4.613248291015625,11.456250190734863,33.31875228881836,-39.5625
1694728324632245500,4.63324560546875,8.77500057220459,34.91250228881836,-39.243751525878906
1694728324652239400,4.6532392578125,7.012500286102295,35.4375,-39.16875076293945
1694728324672236300,4.673236328125,6.693750381469727,35.70000076293945,-39.150001525878906
1694728324692244000,4.693243896484375,5.268750190734863,36.337501525878906,-38.55000305175781
1694728324712245500,4.71324560546875,4.537500381469727,36.78750228881836,-38.23125076293945
1694728324732246500,4.73324658203125,2.15625,37.21875,-37.85625076293945
1694728324752244000,4.753243896484375,1.631250023841858,37.48125076293945,-37.462501525878906
1694728324772236800,4.77323681640625,0.39375001192092896,38.47500228881836,-37.03125
1694728324792242700,4.79324267578125,-0.7125000357627869,38.587501525878906,-36.243751525878906
1694728324812231400,4.8132314453125,-1.3312500715255737,39.22500228881836,-35.53125
1694728324832226600,4.8332265625,-3.093750238418579,39.22500228881836,-35.15625
1694728324852238000,4.853238037109375,-3.281250238418579,39.58125305175781,-34.63125228881836
1694728324872243200,4.8732431640625,-4.931250095367432,40.03125,-34.25625228881836
1694728324892254200,4.893254150390625,-6.187500476837158,39.86250305175781,-33.76875305175781
1694728324912247300,4.913247314453125,-6.993750095367432,40.40625,-33.16875076293945
1694728324932248600,4.93324853515625,-7.725000381469727,40.66875076293945,-32.868751525878906
1694728324952256800,4.9532568359375,-7.818750381469727,41.306251525878906,-32.64375305175781
1694728324972259000,4.973259033203125,-8.643750190734863,41.493751525878906,-31.631250381469727
1694728324992249600,4.99324951171875,-8.943750381469727,41.493751525878906,-31.537500381469727
1694728325012245000,5.013244873046875,-8.943750381469727,42.22500228881836,-31.125001907348633
1694728325032244700,5.03324462890625,-9.46875,42.03750228881836,-31.125001907348633
1694728325052244500,5.053244384765625,-9.5625,41.88750076293945,-30.637500762939453
1694728325072233500,5.0732333984375,-9.356250762939453,41.34375,-30.843751907348633
1694728325092232400,5.093232421875,-9.24375057220459,41.681251525878906,-30.937501907348633
1694728325112226600,5.1132265625,-7.781250476837158,41.962501525878906,-30.600000381469727
1694728325132230000,5.13322998046875,-7.368750095367432,42.41250228881836,-30.881250381469727
1694728325152236300,5.153236328125,-6.431250095367432,42.67500305175781,-30.975000381469727
1694728325172237600,5.173237548828125,-3.0187501907348633,42.76875305175781,-31.51875114440918
1694728325192245500,5.19324560546875,-0.3375000059604645,41.868751525878906,-32.71875
1694728325212247800,5.213247802734375,1.818750023841858,41.587501525878906,-33.712501525878906
1694728325232249900,5.233249755859375,4.068750381469727,39.86250305175781,-35.34375
1694728325252253700,5.253253662109375,6.018750190734863,38.32500076293945,-36.67500305175781
1694728325272252200,5.273252197265625,5.681250095367432,37.6875,-37.70625305175781
1694728325292258000,5.293258056640625,6.918750286102295,36.50625228881836,-38.8125
1694728325312250600,5.313250732421875,7.856250286102295,35.88750076293945,-38.73750305175781
1694728325332241700,5.33324169921875,9.693750381469727,34.98750305175781,-39.9375
1694728325352248600,5.35324853515625,10.83750057220459,34.10625076293945,-39.54375076293945
1694728325372250400,5.37325048828125,12.281250953674316,33.20625305175781,-40.25625228881836
1694728325392251000,5.3932509765625,14.568750381469727,31.443750381469727,-40.57500076293945
1694728325412236000,5.413236083984375,15.80625057220459,30.375001907348633,-40.59375
1694728325432231700,5.433231689453125,17.775001525878906,29.775001525878906,-40.16250228881836
1694728325452229400,5.4532294921875,20.0625,29.193750381469727,-39.35625076293945
1694728325472219100,5.47321923828125,20.587501525878906,28.575000762939453,-39.26250076293945
1694728325492237600,5.493237548828125,20.90625,28.668750762939453,-39.35625076293945
1694728325512237000,5.513237060546875,20.587501525878906,29.193750381469727,-39.337501525878906
1694728325532243700,5.53324365234375,18.618751525878906,30.243751525878906,-39.243751525878906
1694728325552256300,5.55325634765625,16.856250762939453,30.95625114440918,-39.337501525878906
1694728325572250400,5.57325048828125,13.83750057220459,32.32500076293945,-40.14375305175781
1694728325592252400,5.59325244140625,13.968750953674316,33.150001525878906,-39.63750076293945
1694728325612249900,5.613249755859375,15.075000762939453,32.15625,-40.33125305175781
1694728325632247300,5.633247314453125,15.393750190734863,31.61250114440918,-40.462501525878906
1694728325652242700,5.65324267578125,15.918750762939453,30.468751907348633,-40.38750076293945
1694728325672254500,5.67325439453125,17.15625,30.131250381469727,-39.76875305175781
1694728325692257800,5.6932578125,17.887500762939453,30.318750381469727,-39.84375
1694728325712256000,5.713256103515625,17.568750381469727,29.512500762939453,-39.97500228881836
1694728325732254200,5.733254150390625,14.643750190734863,30.637500762939453,-40.80000305175781
1694728325752248000,5.753248046875,10.912500381469727,31.593751907348633,-41.13750076293945
1694728325772240100,5.773240234375,11.231250762939453,32.13750076293945,-40.80000305175781
1694728325792241000,5.793240966796875,11.662500381469727,32.493751525878906,-40.38750076293945
1694728325812225800,5.813225830078125,11.34375,32.587501525878906,-40.087501525878906
1694728325832222200,5.83322216796875,9.28125,33.9375,-39.375
1694728325852234200,5.853234130859375,7.743750095367432,35.10000228881836,-38.55000305175781
1694728325872228900,5.873228759765625,7.256250381469727,36.01875305175781,-37.51875305175781
1694728325892243200,5.8932431640625,6.206250190734863,36.88125228881836,-38.118751525878906
1694728325912250400,5.91325048828125,5.90625,36.97500228881836,-37.40625
1694728325932252000,5.933251953125,4.462500095367432,37.70625305175781,-36.91875076293945
1694728325952248600,5.95324853515625,3.1125001907348633,37.61250305175781,-36.41250228881836
1694728325972252700,5.973252685546875,2.4937500953674316,38.23125076293945,-36.41250228881836
1694728325992244200,5.993244140625,1.9687501192092896,38.625,-36.03750228881836
1694728326012241200,6.0132412109375,1.7812501192092896,38.92500305175781,-34.72500228881836
1694728326032242700,6.03324267578125,0.75,39.20625305175781,-34.21875
1694728326052254500,6.05325439453125,-0.375,39.993751525878906,-34.10625076293945
1694728326072240600,6.07324072265625,-1.21875,40.01250076293945,-33.525001525878906
1694728326092238300,6.09323828125,-2.34375,40.556251525878906,-32.90625
1694728326112242700,6.11324267578125,-2.6437501907348633,40.837501525878906,-32.306251525878906
1694728326132246800,6.133246826171875,-3.562500238418579,41.28750228881836,-31.89375114440918
1694728326152243500,6.153243408203125,-4.706250190734863,41.38125228881836,-31.218751907348633
1694728326172242000,6.173241943359375,-5.325000286102295,41.64375305175781,-31.406251907348633
1694728326192248000,6.193248046875,-6.056250095367432,41.64375305175781,-31.012500762939453
1694728326212248600,6.21324853515625,-6.675000190734863,41.8125,-31.537500381469727
1694728326232248800,6.233248779296875,-6.975000381469727,41.47500228881836,-31.031251907348633
1694728326252252200,6.253252197265625,-6.787500381469727,41.55000305175781,-31.33125114440918
1694728326272250400,6.27325048828125,-6.375000476837158,41.36250305175781,-31.537500381469727
1694728326292256300,6.29325634765625,-6.487500190734863,41.79375076293945,-32.23125076293945
1694728326312249300,6.313249267578125,-4.518750190734863,41.88750076293945,-32.60625076293945
1694728326332240000,6.333239990234375,-2.8500001430511475,41.60625076293945,-32.88750076293945
1694728326352247300,6.353247314453125,0.13125000894069672,41.0625,-33.76875305175781
1694728326372241700,6.37324169921875,1.7812501192092896,40.96875,-34.66875076293945
1694728326392252200,6.393252197265625,3.843750238418579,40.51875305175781,-35.55000305175781
1694728326412237800,6.41323779296875,6,38.79375076293945,-37.087501525878906
1694728326432233200,6.433233154296875,7.012500286102295,37.61250305175781,-38.118751525878906
1694728326452227000,6.45322705078125,7.106250286102295,37.33125305175781,-39.13125228881836
1694728326472217600,6.473217529296875,8.456250190734863,36.806251525878906,-38.92500305175781
1694728326492236800,6.49323681640625,9.99375057220459,36.16875076293945,-39.82500076293945
1694728326512236300,6.513236328125,10.818750381469727,35.19375228881836,-40.23750305175781
1694728326532243500,6.533243408203125,12.881250381469727,34.03125,-40.650001525878906
1694728326552256000,6.553256103515625,14.531250953674316,32.70000076293945,-41.0625
1694728326572250400,6.57325048828125,16.087501525878906,32.08125305175781,-41.47500228881836
1694728326592246000,6.59324609375,17.962501525878906,30.937501907348633,-40.96875
1694728326612244700,6.61324462890625,20.043750762939453,30.262500762939453,-40.25625228881836
1694728326632245800,6.633245849609375,20.662500381469727,29.64375114440918,-40.06875228881836
1694728326652241700,6.65324169921875,21.20625114440918,29.83125114440918,-39.63750076293945
1694728326672242700,6.67324267578125,20.887500762939453,30.262500762939453,-39.9375
1694728326692248800,6.693248779296875,20.36250114440918,30.806251525878906,-39.73125076293945
1694728326712253000,6.7132529296875,18.618751525878906,31.593751907348633,-39.82500076293945
1694728326732252200,6.733252197265625,15.693750381469727,33.09375,-40.03125
1694728326752247000,6.7532470703125,13.293750762939453,33.86250305175781,-40.650001525878906
1694728326772238800,6.77323876953125,12.075000762939453,35.10000228881836,-40.42500305175781
1694728326792239900,6.793239990234375,14.043750762939453,34.95000076293945,-39.900001525878906
1694728326812225300,6.813225341796875,15.075000762939453,33.07500076293945,-40.556251525878906
1694728326832222000,6.833221923828125,16.725000381469727,32.45625305175781,-40.33125305175781
1694728326852234500,6.853234375,17.26875114440918,31.950000762939453,-39.73125076293945
1694728326872229400,6.8732294921875,18.30000114440918,31.781251907348633,-39.431251525878906
1694728326892244000,6.893243896484375,17.887500762939453,32.400001525878906,-39.618751525878906
1694728326912239900,6.913239990234375,15.487500190734863,31.912500381469727,-40.66875076293945
1694728326932243700,6.93324365234375,14.437500953674316,32.36250305175781,-40.48125076293945
1694728326952254000,6.95325390625,12.468750953674316,33.22500228881836,-40.78125
1694728326972257300,6.97325732421875,12.075000762939453,34.125,-40.16250228881836
1694728326992249300,6.993249267578125,10.631250381469727,35.56875228881836,-39.431251525878906
1694728327012252200,7.013252197265625,8.043750762939453,36.806251525878906,-38.71875
1694728327032246800,7.033246826171875,5.887500286102295,38.493751525878906,-38.306251525878906
1694728327052246300,7.053246337890625,4.631250381469727,38.94375228881836,-37.91250228881836
1694728327072234000,7.07323388671875,2.981250047683716,39.41250228881836,-36.806251525878906
1694728327092232200,7.093232177734375,2.4750001430511475,39.9375,-36.69375228881836
1694728327112233200,7.113233154296875,1.03125,40.48125076293945,-36
1694728327132235000,7.133235107421875,0.6375000476837158,40.40625,-35.60625076293945
1694728327152233000,7.15323291015625,-1.4250000715255737,40.76250076293945,-35.00625228881836
1694728327172234500,7.173234375,-2.887500047683716,40.85625076293945,-34.931251525878906
1694728327192243200,7.1932431640625,-4.012500286102295,41.04375076293945,-34.03125
1694728327212245800,7.213245849609375,-5.15625,40.96875,-33.35625076293945
1694728327232247600,7.23324755859375,-7.331250190734863,40.95000076293945,-33.67500305175781
1694728327252251600,7.253251708984375,-7.856250286102295,40.6875,-33.39375305175781
1694728327272251000,7.2732509765625,-8.268750190734863,40.98750305175781,-32.681251525878906
1694728327292257000,7.293257080078125,-10.012500762939453,41.0625,-32.00625228881836
1694728327312250000,7.31325,-9.99375057220459,41.26875305175781,-31.481250762939453
1694728327332240600,7.33324072265625,-10.818750381469727,41.8125,-30.58125114440918
1694728327352255000,7.3532548828125,-10.818750381469727,41.45625305175781,-30.58125114440918
1694728327372255200,7.373255126953125,-11.02500057220459,41.64375305175781,-30.281251907348633
1694728327392254700,7.393254638671875,-11.53125,41.8125,-30.187501907348633
1694728327412238600,7.413238525390625,-12.581250190734863,41.8125,-30.30000114440918
1694728327432236300,7.433236328125,-12.168750762939453,41.73750305175781,-30.30000114440918
1694728327452243700,7.45324365234375,-12.881250381469727,41.98125076293945,-30.39375114440918
1694728327472230400,7.47323046875,-10.293750762939453,42.26250076293945,-30.056251525878906
1694728327492239000,7.493239013671875,-9.05625057220459,42.01875305175781,-30.243751525878906
1694728327512237300,7.5132373046875,-6.675000190734863,42.09375,-30.918750762939453
1694728327532243500,7.533243408203125,-4.5,42.07500076293945,-31.89375114440918
1694728327552255500,7.55325537109375,-1.818750023841858,41.60625076293945,-33.48750305175781
1694728327572260600,7.573260498046875,0.75,40.61250305175781,-34.57500076293945
1694728327592260000,7.593260009765625,2.1750001907348633,39.525001525878906,-35.70000076293945
1694728327612255000,7.6132548828125,4.425000190734863,38.0625,-37.63125228881836
1694728327632250600,7.633250732421875,5.34375,37.06875228881836,-38.66250228881836
1694728327652243200,7.6532431640625,6.262500286102295,35.90625,-39.58125305175781
1694728327672233700,7.673233642578125,7.518750190734863,35.53125,-39.78750228881836
1694728327692241200,7.6932412109375,9.131250381469727,33.73125076293945,-41.212501525878906
1694728327712243500,7.713243408203125,10.575000762939453,32.85000228881836,-41.625
1694728327732245000,7.733244873046875,10.987500190734863,31.931251525878906,-42.35625076293945
1694728327752242700,7.75324267578125,12.52500057220459,30.600000381469727,-43.181251525878906
1694728327772236000,7.773236083984375,13.443750381469727,29.26875114440918,-43.40625
1694728327792238800,7.79323876953125,15.112500190734863,28.387500762939453,-43.20000076293945
1694728327812230100,7.813230224609375,15.843750953674316,28.406251907348633,-43.181251525878906
1694728327832225800,7.833225830078125,16.89375114440918,28.593751907348633,-42.5625
1694728327852237600,7.853237548828125,16.70625114440918,29.587501525878906,-41.53125
1694728327872231700,7.873231689453125,15.675000190734863,30.918750762939453,-41.41875076293945
1694728327892245800,7.893245849609375,13.518750190734863,32.88750076293945,-40.57500076293945
1694728327912241000,7.913240966796875,11.86875057220459,34.48125076293945,-40.05000305175781
1694728327932255500,7.93325537109375,12.506250381469727,35.493751525878906,-39.30000305175781
1694728327952263000,7.953262939453125,14.58750057220459,34.70625305175781,-39.09375
1694728327972263700,7.973263671875,15.187500953674316,33,-40.03125
1694728327992253000,7.9932529296875,15.581250190734863,32.47500228881836,-39.95625305175781
1694728328012243200,8.0132431640625,16.21875,32.56875228881836,-39.84375
1694728328032239000,8.033239013671874,15.487500190734863,32.625,-40.35000228881836
1694728328052240100,8.053240234375,14.550000190734863,32.90625,-40.16250228881836
1694728328072229000,8.07322900390625,12.281250953674316,34.59375,-39.84375
1694728328092228000,8.09322802734375,12.506250381469727,35.212501525878906,-39.50625228881836
1694728328112224500,8.113224609375,11.456250190734863,35.83125305175781,-39.20625305175781
1694728328132228600,8.133228515625,10.331250190734863,36.54375076293945,-38.90625
1694728328152228000,8.15322802734375,9.61875057220459,37.44375228881836,-38.47500228881836
1694728328172231400,8.1732314453125,7.256250381469727,38.8125,-36.46875
1694728328192241400,8.193241455078125,6.431250095367432,39.431251525878906,-36.35625076293945
1694728328212244700,8.21324462890625,6.337500095367432,40.25625228881836,-35.625
1694728328232250600,8.233250732421874,4.78125,40.875,-35.53125
1694728328252254500,8.25325439453125,3.2250001430511475,40.96875,-35.13750076293945
1694728328272253200,8.273253173828126,1.8937500715255737,41.493751525878906,-34.63125228881836
1694728328292259000,8.293259033203125,-0.07500000298023224,41.66250228881836,-34.76250076293945
1694728328312251600,8.313251708984374,-1.1062500476837158,41.493751525878906,-34.087501525878906
1694728328332241200,8.3332412109375,-2.137500047683716,42.13125228881836,-33.67500305175781
1694728328352255000,8.3532548828125,-4.200000286102295,42.48750305175781,-33.28125
1694728328372255200,8.373255126953126,-4.40625,42.67500305175781,-32.587501525878906
1694728328392262100,8.39326220703125,-6.581250190734863,42.41250228881836,-32.32500076293945
1694728328412244500,8.413244384765624,-6.881250381469727,42.86250305175781,-31.80000114440918
1694728328432238300,8.43323828125,-8.4375,43.06875228881836,-30.806251525878906
1694728328452240600,8.45324072265625,-8.512500762939453,43.61250305175781,-30.093751907348633
1694728328472227000,8.47322705078125,-9.037500381469727,43.96875,-30.093751907348633
1694728328492235300,8.4932353515625,-9.956250190734863,44.32500076293945,-29.493751525878906
1694728328512234500,8.513234375,-9.975000381469727,43.51875305175781,-29.812501907348633
1694728328532241400,8.533241455078125,-10.27500057220459,43.70625305175781,-29.606250762939453
1694728328552254000,8.55325390625,-10.27500057220459,43.89375305175781,-29.493751525878906
1694728328572259600,8.573259521484376,-9.24375057220459,44.41875076293945,-29.981250762939453
1694728328592259300,8.59325927734375,-8.100000381469727,44.41875076293945,-30.056251525878906
1694728328612254500,8.61325439453125,-6.543750286102295,44.41875076293945,-30.131250381469727
1694728328632250600,8.633250732421875,-3.750000238418579,44.13750076293945,-31.312501907348633
1694728328652250400,8.65325048828125,-1.3687500953674316,43.51875305175781,-31.912500381469727
1694728328672239900,8.673239990234375,1.912500023841858,42.58125305175781,-34.01250076293945
1694728328692245800,8.693245849609376,4.481250286102295,41.681251525878906,-34.80000305175781
1694728328712246500,8.71324658203125,5.475000381469727,39.76875305175781,-37.25625228881836
1694728328732248300,8.733248291015625,5.981250286102295,38.94375228881836,-38.19375228881836
1694728328752244500,8.753244384765624,6.075000286102295,38.32500076293945,-38.60625076293945
1694728328772237000,8.773237060546874,8.25,36.525001525878906,-39.22500228881836
1694728328792251600,8.793251708984375,9.28125,36.431251525878906,-39.82500076293945
1694728328812237000,8.813237060546875,10.40625,35.00625228881836,-40.556251525878906
1694728328832231200,8.833231201171875,11.943750381469727,34.01250076293945,-41.47500228881836
1694728328852241000,8.853240966796875,13.706250190734863,32.681251525878906,-41.493751525878906
1694728328872233500,8.8732333984375,14.418750762939453,31.80000114440918,-41.60625076293945
1694728328892246000,8.89324609375,16.181251525878906,31.106250762939453,-41.493751525878906
1694728328912241000,8.913240966796875,18.28125,30.787500381469727,-40.57500076293945
1694728328932244000,8.933243896484376,19.21875,30.337501525878906,-40.368751525878906
1694728328952253400,8.95325341796875,19.106250762939453,30.431251525878906,-40.368751525878906
1694728328972256800,8.9732568359375,19.23750114440918,30.881250381469727,-39.63750076293945
1694728328992248800,8.993248779296875,16.931251525878906,32.212501525878906,-39.9375
1694728329012257800,9.0132578125,15.506250381469727,33.35625076293945,-39.525001525878906
1694728329032251400,9.03325146484375,13.425000190734863,34.23750305175781,-39.525001525878906
1694728329052249000,9.0532490234375,13.74375057220459,34.61250305175781,-39.20625305175781
1694728329072236300,9.073236328125,13.74375057220459,34.70625305175781,-38.90625
1694728329092234000,9.09323388671875,15.693750381469727,33.26250076293945,-40.125
1694728329112228400,9.113228271484376,16.96875,32.92500305175781,-39.41250228881836
1694728329132235300,9.1332353515625,16.96875,32.493751525878906,-39.22500228881836
1694728329152236500,9.153236572265625,16.743751525878906,32.75625228881836,-39.22500228881836
1694728329172237600,9.173237548828125,15.693750381469727,32.64375305175781,-39.84375
1694728329192245200,9.193245361328126,14.662500381469727,33.26250076293945,-39.431251525878906
1694728329212247300,9.213247314453126,12.600000381469727,33.63750076293945,-39.243751525878906
1694728329232237000,9.233237060546875,13.125000953674316,34.6875,-39.525001525878906
1694728329252243500,9.253243408203126,11.981250762939453,35.23125076293945,-38.8125
1694728329272244700,9.27324462890625,10.125,36.20625305175781,-38.41875076293945
1694728329292252700,9.293252685546875,9.206250190734863,36.9375,-37.48125076293945
1694728329312247000,9.3132470703125,6.731250286102295,38.26875305175781,-36.88125228881836
1694728329332238600,9.333238525390625,5.793750286102295,38.625,-36.58125305175781
1694728329352242400,9.353242431640625,5.081250190734863,39.618751525878906,-36.16875076293945
1694728329372246000,9.37324609375,3.637500047683716,39.88125228881836,-35.66250228881836
1694728329392256000,9.393256103515625,2.4937500953674316,39.69375228881836,-35.681251525878906
1694728329412240600,9.41324072265625,1.03125,39.88125228881836,-35.41875076293945
1694728329432235500,9.433235595703126,-0.39375001192092896,40.33125305175781,-35.00625228881836
1694728329452238800,9.45323876953125,-1.631250023841858,40.76250076293945,-34.91250228881836
1694728329472226300,9.473226318359375,-2.5687501430511475,40.70625305175781,-33.712501525878906
1694728329492239400,9.4932392578125,-3.3937501907348633,41.04375076293945,-34.03125
1694728329512237800,9.51323779296875,-4.931250095367432,41.23125076293945,-33.431251525878906
1694728329532244000,9.533243896484375,-5.568750381469727,41.32500076293945,-33.13125228881836
1694728329552256000,9.553256103515626,-5.643750190734863,41.26875305175781,-32.4375
1694728329572261000,9.57326123046875,-7.087500095367432,41.55000305175781,-31.23750114440918
1694728329592260400,9.59326025390625,-7.818750381469727,42.09375,-30.937501907348633
1694728329612255500,9.61325537109375,-7.593750476837158,42.54375076293945,-30.20625114440918
1694728329632251600,9.633251708984375,-8.418750762939453,42.73125076293945,-29.606250762939453
1694728329652251100,9.653251220703124,-8.193750381469727,42.20625305175781,-29.625001907348633
1694728329672240600,9.67324072265625,-8.625,42.20625305175781,-29.531251907348633
1694728329692253200,9.693253173828126,-8.8125,42.46875,-29.418750762939453
1694728329712252400,9.71325244140625,-8.193750381469727,42.5625,-29.306251525878906
1694728329732258800,9.7332587890625,-7.275000095367432,42.82500076293945,-29.887500762939453
1694728329752253000,9.7532529296875,-5.71875,42.63750076293945,-30.58125114440918
1694728329772243000,9.773242919921875,-2.418750047683716,42.35625076293945,-31.743751525878906
1694728329792250400,9.79325048828125,-0.9750000238418579,41.625,-32.66250228881836
1694728329812233500,9.8132333984375,1.818750023841858,41.36250305175781,-33.337501525878906
1694728329832228000,9.83322802734375,3.9562501907348633,39.900001525878906,-35.0625
1694728329852238300,9.85323828125,4.987500190734863,39.09375,-35.587501525878906
1694728329872231400,9.8732314453125,5.0625,38.17500305175781,-37.3125
1694728329892244700,9.89324462890625,5.568750381469727,38.25,-37.70625305175781
1694728329912239900,9.913239990234375,6.506250381469727,37.368751525878906,-38.025001525878906
1694728329932243000,9.933242919921875,7.518750190734863,36.88125228881836,-39.22500228881836
1694728329952252700,9.953252685546875,9.075000762939453,36.35625076293945,-39.82500076293945
1694728329972256300,9.97325634765625,10.387500762939453,34.462501525878906,-40.875
1694728329992256300,9.99325634765625,12.262500762939453,33.58125305175781,-40.76250076293945
1694728330012252200,10.013252197265626,13.912500381469727,32.60625076293945,-40.98750305175781
1694728330032246500,10.03324658203125,16.61250114440918,31.743751525878906,-40.66875076293945
1694728330052247000,10.0532470703125,17.568750381469727,31.837501525878906,-40.33125305175781
1694728330072235000,10.073235107421874,18.600000381469727,31.593751907348633,-39.9375
1694728330092232400,10.093232421875,18.712501525878906,32.23125076293945,-39.50625228881836
1694728330112226600,10.1132265625,18.20625114440918,32.66250228881836,-39.50625228881836
1694728330132229400,10.1332294921875,17.475000381469727,33.01875305175781,-39.30000305175781
1694728330152229000,10.15322900390625,14.362500190734863,34.51875305175781,-39.20625305175781
1694728330172232000,10.17323193359375,13.331250190734863,35.0625,-38.90625
1694728330192241400,10.193241455078125,13.143750190734863,35.868751525878906,-38.681251525878906
1694728330212233500,10.2132333984375,14.062500953674316,35.41875076293945,-38.88750076293945
1694728330232227300,10.233227294921875,15.918750762939453,34.087501525878906,-39.50625228881836
1694728330252235500,10.253235595703124,16.762500762939453,33.30000305175781,-38.90625
1694728330272239400,10.2732392578125,16.631250381469727,32.75625228881836,-39.31875228881836
1694728330292249900,10.293249755859375,17.26875114440918,32.64375305175781,-39.91875076293945
1694728330312246000,10.31324609375,16.21875,32.71875,-40.743751525878906
1694728330332238300,10.33323828125,12.356250762939453,32.868751525878906,-41.19375228881836
1694728330352249900,10.353249755859375,11.850000381469727,33.58125305175781,-40.57500076293945
1694728330372252200,10.373252197265625,12.581250190734863,34.23750305175781,-39.73125076293945
1694728330392260900,10.3932607421875,10.425000190734863,35.19375228881836,-39.63750076293945
1694728330412247800,10.413247802734375,8.456250190734863,36.806251525878906,-39.01875305175781
1694728330432245200,10.433245361328124,5.15625,38.15625,-37.91250228881836
1694728330452235800,10.45323583984375,4.237500190734863,39.243751525878906,-36.88125228881836
1694728330472223500,10.473223388671874,2.793750047683716,39.95625305175781,-36.28125
1694728330492233200,10.493233154296876,2.1937501430511475,40.6875,-35.47500228881836
1694728330512233000,10.51323291015625,0.9375000596046448,41.306251525878906,-35.56875228881836
1694728330532240400,10.533240478515625,-0.48750001192092896,41.306251525878906,-34.6875
1694728330552253400,10.55325341796875,-0.7875000238418579,41.681251525878906,-33.97500228881836
1694728330572259300,10.57325927734375,-2.5500001907348633,41.41875076293945,-33.69375228881836
1694728330592259300,10.59325927734375,-3.6937501430511475,41.775001525878906,-33.39375305175781
1694728330612254700,10.613254638671876,-5.231250286102295,41.868751525878906,-32.92500305175781
1694728330632251100,10.633251220703125,-5.962500095367432,41.94375228881836,-32.92500305175781
1694728330652251100,10.653251220703124,-6.993750095367432,41.962501525878906,-32.4375
1694728330672239400,10.6732392578125,-7.518750190734863,42.243751525878906,-31.837501525878906
1694728330692252400,10.69325244140625,-8.137500762939453,42.41250228881836,-31.537500381469727
1694728330712251600,10.713251708984375,-8.625,42.35625076293945,-30.431251525878906
1694728330732251400,10.73325146484375,-9.037500381469727,42.46875,-29.83125114440918
1694728330752246500,10.75324658203125,-9.46875,42.46875,-29.943750381469727
1694728330772238600,10.773238525390624,-9.862500190734863,42.73125076293945,-29.625001907348633
1694728330792239900,10.793239990234374,-9.975000381469727,42.54375076293945,-30.131250381469727
1694728330812225800,10.813225830078125,-9.131250381469727,42.5625,-29.512500762939453
1694728330832222000,10.833221923828125,-8.8125,42.91875076293945,-29.306251525878906
1694728330852234200,10.853234130859375,-7.575000286102295,43.10625076293945,-29.587501525878906
1694728330872229000,10.87322900390625,-6.768750190734863,43.25625228881836,-30.48750114440918
1694728330892243700,10.89324365234375,-3.4312500953674316,43.087501525878906,-31.031251907348633
1694728330912251000,10.9132509765625,-1.9875000715255737,43.275001525878906,-30.806251525878906
1694728330932252200,10.933252197265626,1.6125000715255737,42.26250076293945,-32.51250076293945
1694728330952260000,10.953260009765625,2.9437501430511475,41.625,-33.50625228881836
1694728330972261600,10.97326171875,4.818750381469727,41.34375,-34.51875305175781
1694728330992258300,10.99325830078125,5.400000095367432,40.14375305175781,-36.35625076293945
1694728331012256000,11.013256103515625,5.681250095367432,38.962501525878906,-37.275001525878906
1694728331032249900,11.033249755859375,7.743750095367432,37.70625305175781,-38.400001525878906
1694728331052247600,11.05324755859375,9.1875,37.16250228881836,-38.79375076293945
1694728331072245800,11.073245849609375,10.537500381469727,36.375,-39.11250305175781
1694728331092240400,11.093240478515625,12.281250953674316,35.47500228881836,-39.50625228881836
1694728331112232000,11.11323193359375,14.043750762939453,34.85625076293945,-40.21875
1694728331132244700,11.13324462890625,16.33125114440918,33.525001525878906,-40.10625076293945
1694728331152239600,11.153239501953125,17.45625114440918,32.19375228881836,-40.23750305175781
1694728331172238800,11.17323876953125,19.856250762939453,31.42500114440918,-39.525001525878906
1694728331192245800,11.193245849609376,20.17500114440918,31.087501525878906,-39.525001525878906
1694728331212246800,11.213246826171876,20.475000381469727,31.350000381469727,-39.50625228881836
1694728331232236300,11.233236328125,19.443750381469727,31.875001907348633,-39.31875228881836
1694728331252243000,11.253242919921876,18.525001525878906,33.13125228881836,-38.775001525878906
1694728331272243700,11.27324365234375,16.256250381469727,34.368751525878906,-38.36250305175781
1694728331292252000,11.293251953125,15.018750190734863,35.4375,-38.36250305175781
1694728331312246500,11.31324658203125,14.718750953674316,36.16875076293945,-37.743751525878906
1694728331332239000,11.333239013671875,15.750000953674316,35.625,-37.53750228881836
1694728331352240400,11.353240478515625,17.625,34.743751525878906,-37.53750228881836
1694728331372244200,11.373244140625,18.131250381469727,34.14375305175781,-37.44375228881836
1694728331392254700,11.393254638671875,17.8125,33.86250305175781,-37.96875
1694728331412240000,11.413239990234375,17.08125114440918,34.20000076293945,-38.47500228881836
1694728331432236300,11.433236328125,14.156250953674316,34.96875,-39.09375
1694728331452228400,11.453228271484376,13.237500190734863,35.0625,-38.90625
1694728331472218400,11.47321826171875,12.206250190734863,35.94375228881836,-38.79375076293945
1694728331492230400,11.49323046875,11.0625,36.28125,-38.90625
1694728331512231700,11.513231689453125,10.96875,36.9375,-38.28750228881836
1694728331532240000,11.533239990234375,8.49375057220459,38.45625305175781,-36.95625305175781
1694728331552253700,11.553253662109375,7.162500381469727,39.16875076293945,-36.45000076293945
1694728331572260000,11.573260009765624,6.337500095367432,40.087501525878906,-35.53125
1694728331592260400,11.59326025390625,5.512500286102295,40.70625305175781,-34.91250228881836
1694728331612255700,11.613255859375,5.118750095367432,41.17500305175781,-34.29375076293945
1694728331632251400,11.63325146484375,3.356250047683716,41.53125,-33.618751525878906
1694728331652251400,11.65325146484375,1.912500023841858,42.056251525878906,-33.618751525878906
1694728331672239600,11.673239501953125,0.9937500357627869,42.525001525878906,-32.71875
1694728331692252700,11.693252685546875,-0.768750011920929,42.618751525878906,-32.625
1694728331712252000,11.713251953125,-1.068750023841858,43.06875228881836,-31.70625114440918
1694728331732258300,11.73325830078125,-2.9250001907348633,43.33125305175781,-31.631250381469727
1694728331752251400,11.75325146484375,-4.275000095367432,43.16250228881836,-31.05000114440918
1694728331772242000,11.773241943359375,-5.8125,43.61250305175781,-30.468751907348633
1694728331792242400,11.793242431640625,-6.731250286102295,43.53750228881836,-29.568750381469727
1694728331812226800,11.813226806640625,-8.175000190734863,43.91250228881836,-28.556251525878906
1694728331832226000,11.83322607421875,-7.856250286102295,44.19375228881836,-28.14375114440918
1694728331852226000,11.85322607421875,-8.475000381469727,44.56875228881836,-27.431251525878906
1694728331872222200,11.87322216796875,-9.09375,44.118751525878906,-27.562501907348633
1694728331892238300,11.89323828125,-9.412500381469727,44.306251525878906,-27.262500762939453
1694728331912247000,11.9132470703125,-8.981250762939453,44.64375305175781,-27.656251907348633
1694728331932249300,11.933249267578125,-7.237500190734863,44.56875228881836,-27.825000762939453
1694728331952258000,11.953258056640625,-4.856250286102295,44.28750228881836,-28.70625114440918
1694728331972260400,11.97326025390625,-3.1125001907348633,44.17500305175781,-30.000001907348633
1694728331992257500,11.993257568359375,-0.8437500596046448,43.70625305175781,-30.881250381469727
1694728332012255200,12.013255126953124,2.0250000953674316,42.431251525878906,-32.70000076293945
1694728332032249900,12.033249755859375,4.275000095367432,41.0625,-34.61250305175781
1694728332052247800,12.053247802734376,5.925000190734863,40.61250305175781,-35.51250076293945
1694728332072251000,12.0732509765625,7.162500381469727,39.806251525878906,-35.625
1694728332092244200,12.093244140625,7.256250381469727,39.69375228881836,-37.03125
1694728332112237000,12.113237060546876,8.606250762939453,39.60000228881836,-37.53750228881836
1694728332132241000,12.133240966796874,11.793750762939453,37.72500228881836,-38.64375305175781
1694728332152236500,12.153236572265625,13.031250953674316,36.375,-39.26250076293945
1694728332172235300,12.1732353515625,14.475000381469727,35.13750076293945,-39.69375228881836
1694728332192243000,12.193242919921875,17.043750762939453,33.54375076293945,-39.993751525878906
1694728332212244700,12.21324462890625,18.30000114440918,32.83125305175781,-39.900001525878906
1694728332232235300,12.2332353515625,20.587501525878906,31.70625114440918,-39.60000228881836
1694728332252242200,12.2532421875,20.793750762939453,31.42500114440918,-40.01250076293945
1694728332272243700,12.27324365234375,19.856250762939453,31.537500381469727,-39.31875228881836
1694728332292252000,12.293251953125,20.8125,32.08125305175781,-38.775001525878906
1694728332312246800,12.313246826171875,19.462501525878906,32.962501525878906,-38.66250228881836
1694728332332246800,12.333246826171875,17.381250381469727,34.462501525878906,-38.75625228881836
1694728332352246300,12.353246337890624,16.03125,35.4375,-38.75625228881836
1694728332372248800,12.373248779296874,14.175000190734863,36.39375305175781,-38.55000305175781
1694728332392257800,12.3932578125,15.018750190734863,36.58125305175781,-38.32500076293945
1694728332412243200,12.4132431640625,17.418750762939453,35.36250305175781,-37.81875228881836
1694728332432237300,12.4332373046875,18.543750762939453,34.48125076293945,-38.04375076293945
1694728332452243000,12.453242919921875,19.162500381469727,33.69375228881836,-37.85625076293945
1694728332472230000,12.47322998046875,20.512500762939453,33.431251525878906,-37.42500305175781
1694728332492238000,12.493238037109375,20.92500114440918,32.90625,-37.53750228881836
1694728332512236500,12.513236572265624,17.90625,33.91875076293945,-39.16875076293945
1694728332532243000,12.533242919921875,14.58750057220459,34.78125,-39.09375
1694728332552255000,12.5532548828125,13.968750953674316,36.03750228881836,-38.75625228881836
1694728332572260400,12.57326025390625,14.381250381469727,36.31875228881836,-38.13750076293945
1694728332592259800,12.593259765625,13.46250057220459,37.05000305175781,-37.42500305175781
1694728332612255000,12.6132548828125,10.46250057220459,38.28750228881836,-37.23750305175781
1694728332632251000,12.6332509765625,7.462500095367432,39.88125228881836,-36.63750076293945
1694728332652250600,12.653250732421874,6.337500095367432,40.42500305175781,-36.01875305175781
1694728332672238800,12.67323876953125,5.737500190734863,41.15625,-35.10000228881836
1694728332692246800,12.693246826171874,2.606250047683716,41.306251525878906,-35.45625305175781
1694728332712247600,12.71324755859375,1.4625000953674316,41.83125305175781,-35.64375305175781
1694728332732255000,12.7332548828125,1.5937501192092896,42.11250305175781,-34.63125228881836
1694728332752249000,12.7532490234375,0.03750000149011612,42.50625228881836,-33.525001525878906
1694728332772240400,12.773240478515625,-0.5625,43.03125,-33.31875228881836
1694728332792241000,12.793240966796875,-0.65625,43.3125,-32.71875
1694728332812226300,12.813226318359375,-2.606250047683716,43.875,-31.61250114440918
1694728332832222200,12.83322216796875,-3.4312500953674316,44.13750076293945,-31.218751907348633
1694728332852234500,12.853234375,-4.462500095367432,44.41875076293945,-30.825000762939453
1694728332872229000,12.87322900390625,-5.606250286102295,44.681251525878906,-30.11250114440918
1694728332892232200,12.893232177734374,-6.318750381469727,44.79375076293945,-29.118751525878906
1694728332912242200,12.9132421875,-7.856250286102295,45.16875076293945,-28.312501907348633
1694728332932245800,12.933245849609374,-7.631250381469727,45.26250076293945,-27.712501525878906
1694728332952255500,12.95325537109375,-8.15625,44.92500305175781,-27.11250114440918
1694728332972247300,12.973247314453126,-8.362500190734863,45.09375,-27.412500381469727
1694728332992247800,12.993247802734375,-9.52500057220459,44.90625,-28.05000114440918
1694728333012248600,13.01324853515625,-8.0625,45.07500076293945,-28.42500114440918
1694728333032252000,13.033251953125,-7.650000095367432,44.64375305175781,-28.125001907348633
1694728333052261600,13.05326171875,-8.381250381469727,45.243751525878906,-28.42500114440918
1694728333072264700,13.0732646484375,-3.731250047683716,44.25,-30.20625114440918
1694728333092255000,13.0932548828125,-1.5562500953674316,44.23125076293945,-30.881250381469727
1694728333112243000,13.113242919921875,1.4250000715255737,43.16250228881836,-32.28750228881836
1694728333132242000,13.133241943359375,3.468750238418579,42.150001525878906,-33.993751525878906
1694728333152236500,13.153236572265625,6.150000095367432,41.15625,-35.00625228881836
1694728333172228400,13.173228271484374,7.293750286102295,40.44375228881836,-35.19375228881836
1694728333192237000,13.193237060546876,8.006250381469727,39.91875076293945,-35.41875076293945
1694728333212240100,13.213240234375,9.225000381469727,39.26250076293945,-36.712501525878906
1694728333232231400,13.2332314453125,10.668750762939453,38.4375,-38.53125
1694728333252239000,13.253239013671875,12.731250762939453,37.01250076293945,-38.45625305175781
1694728333272241700,13.27324169921875,13.237500190734863,35.94375228881836,-39.1875
1694728333292250600,13.293250732421875,15.412500381469727,34.53750228881836,-39.1875
1694728333312246000,13.31324609375,17.587501525878906,33.73125076293945,-38.98125076293945
1694728333332245800,13.333245849609375,18.318750381469727,33.65625,-39.07500076293945
1694728333352244700,13.35324462890625,20.08125114440918,32.775001525878906,-38.775001525878906
1694728333372254700,13.373254638671876,19.762500762939453,32.15625,-39.09375
1694728333392262700,13.3932626953125,20.287500381469727,32.23125076293945,-39.1875
1694728333412245500,13.41324560546875,19.668750762939453,33.31875228881836,-38.962501525878906
1694728333432239400,13.4332392578125,16.875,34.275001525878906,-38.66250228881836
1694728333452232700,13.453232666015625,14.49375057220459,36.03750228881836,-38.64375305175781
1694728333472238000,13.473238037109375,13.443750381469727,36.91875076293945,-38.94375228881836
1694728333492248600,13.49324853515625,14.287500381469727,36.75,-38.83125305175781
1694728333512244500,13.513244384765626,15.506250381469727,35.23125076293945,-39.46875
1694728333532248600,13.53324853515625,17.381250381469727,34.61250305175781,-39.16875076293945
1694728333552259000,13.553259033203124,18.731250762939453,33.67500305175781,-38.56875228881836
1694728333572262700,13.5732626953125,19.256250381469727,33.9375,-38.75625228881836
1694728333592261000,13.59326123046875,18.731250762939453,33.75,-38.868751525878906
1694728333612255200,13.613255126953124,17.681251525878906,34.44375228881836,-39.16875076293945
1694728333632250400,13.63325048828125,13.65000057220459,34.875,-38.90625
1694728333652249900,13.653249755859376,13.331250190734863,36.39375305175781,-38.962501525878906
1694728333672246800,13.673246826171875,12.825000762939453,36.91875076293945,-38.868751525878906
1694728333692243500,13.693243408203125,12.112500190734863,37.89375305175781,-38.64375305175781
1694728333712244200,13.713244140625,9.412500381469727,38.775001525878906,-38.13750076293945
1694728333732252400,13.73325244140625,7.575000286102295,40.21875,-37.21875
1694728333752258000,13.753258056640625,6.018750190734863,40.743751525878906,-37.125
1694728333772248000,13.773248046875,5.400000095367432,41.19375228881836,-36.618751525878906
1694728333792247300,13.793247314453126,4.462500095367432,41.306251525878906,-36.13125228881836
1694728333812230700,13.813230712890626,3.1312501430511475,42.09375,-35.625
1694728333832229600,13.833229736328125,1.162500023841858,42.46875,-35.23125076293945
1694728333852228600,13.853228515625,-0.28125,42.45000076293945,-35.25
1694728333872224000,13.87322412109375,-0.8812500238418579,42.82500076293945,-34.556251525878906
1694728333892228000,13.89322802734375,-3.5812501907348633,43.275001525878906,-33.97500228881836
1694728333912238800,13.91323876953125,-4.293750286102295,43.29375076293945,-33.07500076293945
1694728333932243200,13.9332431640625,-5.756250381469727,43.38750076293945,-32.88750076293945
1694728333952253400,13.95325341796875,-7.406250476837158,43.556251525878906,-32.306251525878906
1694728333972246000,13.97324609375,-8.006250381469727,43.76250076293945,-31.293750762939453
1694728333992247300,13.993247314453125,-9.356250762939453,43.76250076293945,-30.806251525878906
1694728334012247800,14.013247802734375,-9.862500190734863,43.70625305175781,-29.906251907348633
1694728334032243700,14.03324365234375,-9.75,44.0625,-29.381250381469727
1694728334052244000,14.053243896484375,-10.36875057220459,44.34375,-28.98750114440918
1694728334072251600,14.073251708984374,-10.575000762939453,44.4375,-29.08125114440918
1694728334092245800,14.093245849609374,-10.46250057220459,44.25,-29.193750381469727
1694728334112237800,14.11323779296875,-11.40000057220459,43.91250228881836,-28.51875114440918
1694728334132238600,14.133238525390626,-10.987500190734863,44.26875305175781,-28.481250762939453
1694728334152235000,14.153235107421875,-10.256250381469727,44.17500305175781,-28.181251525878906
1694728334172227800,14.173227783203124,-8.58750057220459,44.53125,-28.556251525878906
1694728334192237600,14.193237548828124,-6.412500381469727,44.73750305175781,-28.312501907348633
1694728334212241200,14.2132412109375,-3.6937501430511475,45.1875,-28.162500381469727
1694728334232232400,14.233232421875,-0.8062500357627869,45.16875076293945,-29.531251907348633
1694728334252240400,14.253240478515625,1.8562500476837158,44.17500305175781,-30.825000762939453
1694728334272242700,14.27324267578125,4.631250381469727,42.712501525878906,-32.34375
1694728334292251600,14.293251708984375,5.4375,41.71875,-34.181251525878906
1694728334312247000,14.3132470703125,5.512500286102295,40.51875305175781,-35.92500305175781
1694728334332246300,14.333246337890625,6.206250190734863,39.16875076293945,-36.86250305175781
1694728334352246300,14.353246337890624,7.368750095367432,39.16875076293945,-37.05000305175781
1694728334372256000,14.373256103515626,8.887500762939453,37.89375305175781,-37.98750305175781
1694728334392263400,14.393263427734375,9.300000190734863,37.61250305175781,-38.587501525878906
1694728334412253400,14.41325341796875,10.425000190734863,36.1875,-39.618751525878906
1694728334432245000,14.433244873046876,12.375000953674316,35.19375228881836,-40.125
1694728334452245500,14.45324560546875,13.612500190734863,34.03125,-40.44375228881836
1694728334472242200,14.4732421875,15.80625057220459,33.07500076293945,-40.33125305175781
1694728334492250600,14.493250732421876,17.15625,32.56875228881836,-40.125
1694728334512243500,14.513243408203126,17.681251525878906,32.493751525878906,-38.90625
1694728334532236000,14.533236083984375,17.36250114440918,32.75625228881836,-39.31875228881836
1694728334552248800,14.553248779296876,16.23750114440918,33.73125076293945,-39
1694728334572243500,14.573243408203124,14.906250953674316,34.556251525878906,-38.28750228881836
1694728334592246800,14.593246826171875,10.631250381469727,35.587501525878906,-38.71875
1694728334612245000,14.613244873046876,11.175000190734863,36.76875305175781,-37.875
1694728334632244200,14.633244140625,12.412500381469727,35.60625076293945,-38.19375228881836
1694728334652246500,14.65324658203125,13.856250762939453,34.63125228881836,-38.493751525878906
1694728334672244000,14.673243896484376,13.55625057220459,34.275001525878906,-38.212501525878906
1694728334692242700,14.69324267578125,13.537500381469727,33.20625305175781,-38.85000228881836
1694728334712244500,14.713244384765625,13.74375057220459,33.375,-39.03750228881836
1694728334732253200,14.733253173828125,12.281250953674316,33.97500228881836,-39.150001525878906
1694728334752248300,14.753248291015625,11.0625,34.275001525878906,-37.85625076293945
1694728334772240100,14.773240234375,10.631250381469727,34.96875,-38.4375
1694728334792243700,14.79324365234375,10.237500190734863,35.51250076293945,-37.91250228881836
1694728334812228400,14.813228271484375,8.58750057220459,36.243751525878906,-37.01250076293945
1694728334832226000,14.83322607421875,7.237500190734863,37.462501525878906,-36.993751525878906
1694728334852237300,14.8532373046875,6.112500190734863,38.025001525878906,-36.09375
1694728334872231200,14.873231201171874,4.256250381469727,38.92500305175781,-35.38125228881836
1694728334892233700,14.893233642578124,3.9562501907348633,39.46875,-34.76250076293945
1694728334912243000,14.913242919921874,2.0812501907348633,40.16250228881836,-34.78125
1694728334932246300,14.933246337890624,1.068750023841858,40.53750228881836,-34.275001525878906
1694728334952255700,14.953255859375,0.13125000894069672,40.81875228881836,-33.58125305175781
1694728334972247600,14.97324755859375,-2.325000047683716,41.08125305175781,-32.70000076293945
1694728334992247800,14.993247802734375,-3.468750238418579,41.79375076293945,-32.587501525878906
1694728335012237000,15.013237060546874,-5.53125,41.8125,-31.61250114440918
1694728335032235800,15.03323583984375,-7.593750476837158,42,-31.031251907348633
1694728335052238300,15.05323828125,-8.21250057220459,42.45000076293945,-30.618751525878906
1694728335072247600,15.07324755859375,-8.418750762939453,42.46875,-30.11250114440918
1694728335092245000,15.093244873046874,-9.131250381469727,42.375,-29.625001907348633
1694728335112236500,15.113236572265626,-10.18125057220459,42.46875,-29.531251907348633
1694728335132237300,15.1332373046875,-10.27500057220459,42.9375,-28.818750381469727
1694728335152234000,15.15323388671875,-10.575000762939453,42.75,-28.631250381469727
1694728335172232000,15.17323193359375,-10.46250057220459,42.76875305175781,-28.537500381469727
1694728335192241000,15.193240966796875,-11.512500762939453,42.30000305175781,-28.668750762939453
1694728335212244000,15.213243896484375,-11.71875,42.75,-28.650001525878906
1694728335232246000,15.23324609375,-12.862500190734863,42.84375,-28.256250381469727
1694728335252250600,15.253250732421876,-11.925000190734863,43.03125,-27.825000762939453
1694728335272250000,15.27325,-11.606250762939453,43.556251525878906,-27.918750762939453
1694728335292256800,15.2932568359375,-9.018750190734863,43.743751525878906,-28.575000762939453
1694728335312249900,15.313249755859376,-8.081250190734863,44.08125305175781,-29.156251907348633
1694728335332247800,15.333247802734375,-5.512500286102295,44.306251525878906,-31.031251907348633
1694728335352245800,15.353245849609374,-3.0375001430511475,43.57500076293945,-32.32500076293945
1694728335372243500,15.373243408203125,-1.3125,42.993751525878906,-34.33125305175781
1694728335392253700,15.393253662109375,0.4312500059604645,42.375,-35.13750076293945
1694728335412246300,15.413246337890625,1.6687500476837158,42.26250076293945,-36.13125228881836
1694728335432240400,15.433240478515625,2.0625,41.4375,-36.95625305175781
1694728335452231200,15.453231201171874,3.7125000953674316,40.96875,-38.36250305175781
1694728335472229600,15.473229736328125,5.868750095367432,40.42500305175781,-39.65625
1694728335492241000,15.493240966796876,7.931250095367432,38.98125076293945,-40.48125076293945
1694728335512233500,15.5132333984375,10.818750381469727,37.837501525878906,-41.08125305175781
1694728335532240400,15.533240478515625,13.106250762939453,36.86250305175781,-41.38125228881836
1694728335552253400,15.55325341796875,14.662500381469727,36.07500076293945,-41.28750228881836
1694728335572259300,15.57325927734375,17.45625114440918,34.650001525878906,-41.587501525878906
1694728335592259300,15.59325927734375,19.012500762939453,33.86250305175781,-41.28750228881836
1694728335612254700,15.613254638671876,20.26875114440918,33.525001525878906,-41.17500305175781
1694728335632251400,15.63325146484375,19.837501525878906,33.525001525878906,-41.17500305175781
1694728335652251100,15.653251220703124,18.918750762939453,33.97500228881836,-40.462501525878906
1694728335672247000,15.6732470703125,17.587501525878906,34.85625076293945,-40.368751525878906
1694728335692243700,15.69324365234375,16.950000762939453,35.38125228881836,-40.556251525878906
1694728335712244700,15.71324462890625,13.950000762939453,36.1875,-40.16250228881836
1694728335732252700,15.733252685546875,13.537500381469727,36.88125228881836,-40.462501525878906
1694728335752255000,15.7532548828125,14.981250762939453,36.35625076293945,-40.25625228881836
1694728335772245500,15.77324560546875,16.33125114440918,35.212501525878906,-40.368751525878906
1694728335792247300,15.793247314453126,17.15625,34.42500305175781,-39.97500228881836
1694728335812233200,15.813233154296874,17.0625,34.6875,-39.97500228881836
1694728335832227000,15.83322705078125,16.762500762939453,35.15625,-39.45000076293945
1694728335852237800,15.85323779296875,16.125,34.76250076293945,-40.181251525878906
1694728335872231200,15.873231201171874,15.281250953674316,34.40625,-40.51875305175781
1694728335892233500,15.8932333984375,12.693750381469727,35.28750228881836,-40.61250305175781
1694728335912242700,15.91324267578125,11.34375,36.07500076293945,-40.40625
1694728335932245800,15.933245849609374,9.693750381469727,37.51875305175781,-39.48750305175781
1694728335952255200,15.953255126953126,7.950000286102295,38.400001525878906,-38.98125076293945
1694728335972258000,15.973258056640624,6.206250190734863,40.01250076293945,-37.95000076293945
1694728335992255700,15.993255859375,5.381250381469727,40.29375076293945,-37.14375305175781
1694728336012261000,16.01326123046875,4.875,40.837501525878906,-36.73125076293945
1694728336032253200,16.033253173828125,2.90625,41.212501525878906,-35.94375228881836
1694728336052250600,16.053250732421876,2.625,41.681251525878906,-34.837501525878906
1694728336072255700,16.073255859375,0.3375000059604645,42.28125,-35.04375076293945
1694728336092248000,16.093248046875,-0.9000000357627869,42.28125,-34.556251525878906
1694728336112237600,16.113237548828124,-3.7125000953674316,42.35625076293945,-34.80000305175781
1694728336132237000,16.133237060546875,-3.8062500953674316,42.28125,-33.993751525878906
1694728336152233000,16.15323291015625,-5.868750095367432,42.375,-33.525001525878906
1694728336172227600,16.1732275390625,-7.012500286102295,42.48750305175781,-33.13125228881836
1694728336192237300,16.1932373046875,-7.725000381469727,42.67500305175781,-32.53125
1694728336212240600,16.21324072265625,-8.231250762939453,42.95625305175781,-31.312501907348633
1694728336232232000,16.23323193359375,-9.356250762939453,43.14375305175781,-30.525001525878906
1694728336252240000,16.253239990234373,-9.768750190734863,43.70625305175781,-29.906251907348633
1694728336272242200,16.2732421875,-10.143750190734863,43.556251525878906,-28.406251907348633
1694728336292251100,16.293251220703127,-9.731250762939453,44.36250305175781,-28.068750381469727
1694728336312246500,16.31324658203125,-10.55625057220459,44.118751525878906,-27.281251907348633
1694728336332245800,16.333245849609376,-11.287500381469727,44.025001525878906,-27.39375114440918
1694728336352244700,16.35324462890625,-11.381250381469727,44.025001525878906,-27.281251907348633
1694728336372243500,16.373243408203123,-10.331250190734863,43.96875,-26.681251525878906
1694728336392254000,16.39325390625,-8.887500762939453,44.212501525878906,-26.943750381469727
1694728336412246500,16.41324658203125,-7.012500286102295,44.400001525878906,-27.11250114440918
1694728336432241000,16.433240966796873,-4.537500381469727,44.83125305175781,-28.181251525878906
1694728336452232400,16.453232421875,-2.15625,44.47500228881836,-28.668750762939453
1694728336472230700,16.473230712890626,-0.5062500238418579,44.08125305175781,-30.056251525878906
1694728336492240400,16.493240478515624,2.5687501430511475,42.73125076293945,-31.368751525878906
1694728336512232000,16.51323193359375,3.281250238418579,41.64375305175781,-32.493751525878906
1694728336532239600,16.533239501953126,3.543750047683716,40.89375305175781,-34.63125228881836
1694728336552253000,16.5532529296875,4.481250286102295,40.53750228881836,-35.04375076293945
1694728336572247600,16.57324755859375,6.131250381469727,40.33125305175781,-35.625
1694728336592250400,16.59325048828125,7.687500476837158,39.525001525878906,-36.431251525878906
1694728336612248000,16.613248046875,8.381250381469727,39.056251525878906,-37.85625076293945
1694728336632246300,16.633246337890625,9.61875057220459,37.72500228881836,-38.17500305175781
1694728336652247800,16.653247802734374,12.412500381469727,36.5625,-38.962501525878906
1694728336672245000,16.673244873046876,14.58750057220459,36.20625305175781,-39.056251525878906
1694728336692243500,16.693243408203124,16.556251525878906,35.15625,-39.056251525878906
1694728336712245000,16.713244873046875,18.543750762939453,34.29375076293945,-38.4375
1694728336732253700,16.733253662109377,19.256250381469727,33.84375,-38.34375
1694728336752263200,16.75326318359375,18.95625114440918,34.38750076293945,-38.025001525878906
1694728336772251600,16.773251708984375,17.625,35.28750228881836,-37.51875305175781
1694728336792250000,16.79325,16.275001525878906,36.09375,-37.21875
1694728336812232700,16.813232666015626,12.843750953674316,37.14375305175781,-37.23750305175781
1694728336832227000,16.83322705078125,11.606250762939453,38.36250305175781,-37.21875
1694728336852237600,16.853237548828126,13.068750381469727,38.212501525878906,-37.10625076293945
1694728336872231000,16.87323095703125,13.36875057220459,37.66875076293945,-37.81875228881836
1694728336892233000,16.89323291015625,13.46250057220459,36.86250305175781,-37.931251525878906
1694728336912242200,16.9132421875,13.762500762939453,36.31875228881836,-38.04375076293945
1694728336932245200,16.933245361328126,13.762500762939453,36.48750305175781,-38.55000305175781
1694728336952255000,16.9532548828125,12.093750953674316,36.73125076293945,-38.66250228881836
1694728336972246500,16.97324658203125,10.74375057220459,36.993751525878906,-38.775001525878906
1694728336992247000,16.9932470703125,8.77500057220459,37.96875,-38.587501525878906
1694728337012256000,17.013256103515626,8.90625,38.88750076293945,-37.85625076293945
1694728337032250600,17.033250732421877,6.618750095367432,39.67500305175781,-37.556251525878906
1694728337052249000,17.0532490234375,5.287500381469727,40.57500076293945,-37.14375305175781
1694728337072255000,17.0732548828125,4.368750095367432,41.19375228881836,-36.73125076293945
1694728337092262000,17.093261962890626,2.0812501907348633,42.35625076293945,-36.03750228881836
1694728337112248800,17.113248779296875,2.1937501430511475,42.5625,-35.118751525878906
1694728337132245500,17.13324560546875,0.5437500476837158,42.993751525878906,-34.81875228881836
1694728337152238800,17.15323876953125,-0.05625000223517418,43.087501525878906,-34.63125228881836
1694728337172233000,17.17323291015625,-1.0875000953674316,43.63125228881836,-34.125
1694728337192240400,17.193240478515627,-2.325000047683716,43.72500228881836,-33.82500076293945
1694728337212242400,17.213242431640627,-3.5812501907348633,43.63125228881836,-33.35625076293945
1694728337232234500,17.233234375,-4.293750286102295,43.556251525878906,-33.16875076293945
1694728337252241400,17.253241455078125,-5.756250381469727,43.72500228881836,-32.868751525878906
1694728337272243000,17.273242919921874,-6.881250381469727,44.025001525878906,-31.968751907348633
1694728337292251100,17.293251220703127,-7.912500381469727,43.837501525878906,-31.687501907348633
1694728337312248300,17.313248291015626,-8.943750381469727,44.47500228881836,-30.787500381469727
1694728337332247000,17.3332470703125,-9.543750762939453,44.681251525878906,-29.26875114440918
1694728337352245500,17.35324560546875,-9.84375,45.056251525878906,-28.968751907348633
1694728337372243500,17.373243408203123,-9.84375,45.07500076293945,-28.443750381469727
1694728337392254000,17.39325390625,-10.443750381469727,44.8125,-27.975000381469727
1694728337412238800,17.41323876953125,-10.143750190734863,45.16875076293945,-27.656251907348633
1694728337432233700,17.433233642578124,-9.28125,45.73125076293945,-26.512500762939453
1694728337452238600,17.453238525390624,-8.550000190734863,46.10625076293945,-26.381250381469727
1694728337472236300,17.473236328125,-6.487500190734863,46.10625076293945,-26.662500381469727
1694728337492245500,17.49324560546875,-4.293750286102295,46.10625076293945,-27.243751525878906
1694728337512237000,17.513237060546874,-0.7875000238418579,45.54375076293945,-28.406251907348633
1694728337532243200,17.5332431640625,1.1437500715255737,44.56875228881836,-29.418750762939453
1694728337552255200,17.553255126953125,3.093750238418579,43.98750305175781,-31.33125114440918
1694728337572248800,17.573248779296875,4.631250381469727,42.806251525878906,-32.45625305175781
1694728337592251100,17.593251220703124,4.181250095367432,42.31875228881836,-34.38750076293945
1694728337612248300,17.613248291015626,5.418750286102295,41.681251525878906,-34.98750305175781
1694728337632246000,17.63324609375,6.337500095367432,41.04375076293945,-36.20625305175781
1694728337652247600,17.65324755859375,7.781250476837158,41.025001525878906,-36.78750228881836
1694728337672245800,17.673245849609376,8.90625,40.3125,-37.5
1694728337692232000,17.69323193359375,10.96875,38.681251525878906,-38.73750305175781
1694728337712236300,17.713236328125,13.256250381469727,37.89375305175781,-38.625
1694728337732247000,17.7332470703125,15.956250190734863,36.76875305175781,-38.71875
1694728337752251600,17.753251708984376,18.86250114440918,36.07500076293945,-38.08125305175781
1694728337772243200,17.7732431640625,20.53125,35.83125305175781,-37.462501525878906
1694728337792245800,17.793245849609374,21.5625,34.6875,-37.57500076293945
1694728337812233500,17.8132333984375,21.787500381469727,35.23125076293945,-36.76875305175781
1694728337832228600,17.833228515625,20.325000762939453,35.66250228881836,-37.06875228881836
1694728337852239400,17.8532392578125,19.51875114440918,36.91875076293945,-36.431251525878906
1694728337872232400,17.873232421875,15.262500762939453,38.681251525878906,-35.83125305175781
1694728337892234500,17.893234375,13.518750190734863,40.01250076293945,-35.625
1694728337912243500,17.913243408203126,12.787500381469727,41.34375,-35.60625076293945
1694728337932246500,17.93324658203125,14.456250190734863,41.00625228881836,-34.98750305175781
1694728337952255700,17.953255859375,14.756250381469727,39.75,-35.92500305175781
1694728337972247300,17.973247314453126,17.15625,39.16875076293945,-35.10000228881836
1694728337992247800,17.993247802734373,17.043750762939453,38.51250076293945,-35.71875
1694728338012248000,18.013248046875,16.912500381469727,38.32500076293945,-36.73125076293945
1694728338032246000,18.03324609375,15.881250381469727,38.41875076293945,-36.243751525878906
1694728338052245500,18.05324560546875,15.581250190734863,39.22500228881836,-35.71875
1694728338072241200,18.0732412109375,15.375000953674316,39.9375,-35.8125
1694728338092237300,18.0932373046875,14.662500381469727,40.125,-35.00625228881836
1694728338112233000,18.11323291015625,12.187500953674316,41.36250305175781,-34.89375305175781
1694728338132234500,18.133234375,10.21875,42.243751525878906,-34.59375
1694728338152232400,18.153232421875,7.725000381469727,43.05000305175781,-33.91875076293945
1694728338172231200,18.173231201171873,5.981250286102295,44.025001525878906,-33.60000228881836
1694728338192240400,18.193240478515627,5.775000095367432,44.13750076293945,-33.09375
1694728338212243700,18.21324365234375,4.856250286102295,44.32500076293945,-32.400001525878906
1694728338232234500,18.233234375,2.5875000953674316,45.30000305175781,-31.80000114440918
1694728338252242000,18.253241943359374,1.5562500953674316,45.22500228881836,-31.312501907348633
1694728338272243700,18.27324365234375,0.8250000476837158,45.50625228881836,-30.806251525878906
1694728338292241200,18.2932412109375,-1.125,46.21875,-30.412500381469727
1694728338312238600,18.313238525390624,-2.5875000953674316,46.21875,-30.037500381469727
1694728338332240100,18.333240234375,-4.21875,46.5,-28.837501525878906
1694728338352241000,18.353240966796875,-5.15625,46.23750305175781,-28.556251525878906
1694728338372241000,18.373240966796875,-6.075000286102295,46.35000228881836,-27.468751907348633
1694728338392252200,18.393252197265625,-6.581250190734863,47.15625,-27.037500381469727
1694728338412254000,18.41325390625,-7.200000286102295,47.34375,-26.73750114440918
1694728338432246300,18.433246337890626,-8.137500762939453,47.26875305175781,-26.043750762939453
1694728338452247800,18.453247802734374,-8.11875057220459,47.55000305175781,-25.125001907348633
1694728338472244700,18.47324462890625,-8.325000762939453,47.28750228881836,-25.14375114440918
1694728338492254500,18.49325439453125,-8.11875057220459,47.56875228881836,-24.731250762939453
1694728338512245800,18.513245849609376,-6.843750476837158,47.66250228881836,-24.20625114440918
1694728338532249000,18.5332490234375,-6.656250476837158,48.187503814697266,-24.58125114440918
1694728338552258800,18.5532587890625,-4.987500190734863,48.093753814697266,-24.975000381469727
1694728338572262100,18.57326220703125,-1.7812501192092896,47.90625,-26.343751907348633
1694728338592260600,18.593260498046874,0.48750001192092896,47.53125,-27.131250381469727
1694728338612254700,18.613254638671876,3.8625001907348633,46.25625228881836,-29.73750114440918
1694728338632249600,18.63324951171875,6.431250095367432,44.98125076293945,-31.256250381469727
1694728338652249300,18.653249267578126,7.331250190734863,44.23125076293945,-32.56875228881836
1694728338672245000,18.673244873046876,8.34375,42.84375,-35.025001525878906
1694728338692243200,18.6932431640625,8.737500190734863,42.20625305175781,-35.94375228881836
1694728338712244000,18.713243896484375,9.956250190734863,40.76250076293945,-37.368751525878906
1694728338732252200,18.733252197265625,10.668750762939453,40.38750076293945,-38.08125305175781
1694728338752263700,18.753263671875,11.887500762939453,39.01875305175781,-39.91875076293945
1694728338772251400,18.77325146484375,13.856250762939453,37.96875,-40.125
1694728338792248800,18.793248779296874,16.23750114440918,36.26250076293945,-40.743751525878906
1694728338812231700,18.813231689453126,17.15625,35.28750228881836,-41.0625
1694728338832225800,18.833225830078124,19.856250762939453,33.993751525878906,-40.14375305175781
1694728338852236300,18.853236328125,21.318750381469727,33.993751525878906,-39.82500076293945
1694728338872230000,18.87322998046875,22.256250381469727,33.76875305175781,-39.20625305175781
1694728338892232400,18.893232421875,21.431251525878906,33.84375,-38.8125
1694728338912241700,18.91324169921875,20.625,34.931251525878906,-38.19375228881836
1694728338932245000,18.933244873046874,18.450000762939453,36.60000228881836,-38.28750228881836
1694728338952254700,18.953254638671876,16.80000114440918,37.85625076293945,-37.368751525878906
1694728338972246500,18.97324658203125,15.581250190734863,39.46875,-36.525001525878906
1694728338992247000,18.9932470703125,17.137500762939453,39.11250305175781,-36.618751525878906
1694728339012248300,19.013248291015625,18.881250381469727,37.70625305175781,-36.63750076293945
1694728339032245000,19.033244873046876,18.86250114440918,36.45000076293945,-37.462501525878906
1694728339052245000,19.053244873046875,19.89375114440918,35.73750305175781,-37.875
1694728339072252400,19.07325244140625,19.275001525878906,35.45625305175781,-37.89375305175781
1694728339092246300,19.093246337890626,18.65625,36,-37.59375
1694728339112237000,19.113237060546876,19.087501525878906,37.087501525878906,-36.9375
1694728339132238000,19.133238037109376,18.262500762939453,37.89375305175781,-36.525001525878906
1694728339152234200,19.153234130859374,17.137500762939453,38.60625076293945,-35.92500305175781
1694728339172227600,19.1732275390625,16.42500114440918,39.76875305175781,-35.70000076293945
1694728339192237300,19.1932373046875,14.156250953674316,41.19375228881836,-35.17500305175781
1694728339212241200,19.2132412109375,11.456250190734863,42.337501525878906,-34.6875
1694728339232233200,19.233233154296876,10.537500381469727,43.23750305175781,-34.275001525878906
1694728339252241200,19.2532412109375,9.1875,43.59375,-34.087501525878906
1694728339272243500,19.273243408203125,7.856250286102295,43.95000076293945,-33.58125305175781
1694728339292252200,19.293252197265623,5.568750381469727,44.73750305175781,-33.39375305175781
1694728339312247300,19.313247314453125,4.331250190734863,44.75625228881836,-32.79375076293945
1694728339332246500,19.33324658203125,2.2687501907348633,44.92500305175781,-32.41875076293945
1694728339352245200,19.353245361328124,0.5062500238418579,45.54375076293945,-32.13750076293945
1694728339372255000,19.3732548828125,-0.5250000357627869,45.46875,-32.04375076293945
1694728339392263000,19.393262939453123,-2.1937501430511475,45.91875076293945,-31.556251525878906
1694728339412245800,19.413245849609375,-3.2250001430511475,46.01250076293945,-30.95625114440918
1694728339432239600,19.433239501953125,-4.125,46.650001525878906,-29.83125114440918
1694728339452230400,19.45323046875,-4.950000286102295,46.931251525878906,-29.343751907348633
1694728339472231200,19.473231201171874,-4.743750095367432,46.95000076293945,-28.631250381469727
1694728339492240000,19.493239990234375,-6.281250476837158,46.78125,-27.95625114440918
1694728339512238000,19.513238037109375,-7.312500476837158,47.0625,-27.243751525878906
1694728339532244000,19.533243896484375,-7.706250190734863,47.26875305175781,-26.231250762939453
1694728339552255700,19.553255859375,-7.593750476837158,47.64375305175781,-25.312501907348633
1694728339572249600,19.57324951171875,-7.087500095367432,48.07500076293945,-25.593751907348633
1694728339592251400,19.59325146484375,-6.656250476837158,48.26250076293945,-25.181251525878906
1694728339612248600,19.61324853515625,-6.656250476837158,48.187503814697266,-24.993751525878906
1694728339632248300,19.633248291015626,-4.368750095367432,48.01875305175781,-25.256250381469727
1694728339652249000,19.6532490234375,-3.0375001430511475,47.90625,-26.45625114440918
1694728339672247600,19.67324755859375,0.675000011920929,47.15625,-28.14375114440918
1694728339692243200,19.6932431640625,2.418750047683716,46.42500305175781,-29.343751907348633
1694728339712244500,19.713244384765623,3.543750047683716,45.525001525878906,-30.375001907348633
1694728339732253000,19.7332529296875,5.775000095367432,43.96875,-32.60625076293945
1694728339752255500,19.75325537109375,5.962500095367432,43.40625,-33.9375
1694728339772246000,19.77324609375,6.975000381469727,42.056251525878906,-35.0625
1694728339792245000,19.793244873046874,7.593750476837158,41.60625076293945,-35.36250305175781
1694728339812230000,19.81322998046875,9.131250381469727,40.931251525878906,-37.275001525878906
1694728339832225500,19.8332255859375,9.956250190734863,40.125,-37.70625305175781
1694728339852236800,19.85323681640625,11.381250381469727,39.31875228881836,-38.19375228881836
1694728339872230700,19.873230712890624,13.350000381469727,37.63125228881836,-38.83125305175781
1694728339892233200,19.893233154296876,15.318750381469727,37.29375076293945,-38.8125
1694728339912242400,19.913242431640626,17.8125,35.70000076293945,-38.8125
1694728339932245800,19.933245849609374,19.6875,35.00625228881836,-38.51250076293945
1694728339952255200,19.953255126953124,20.418750762939453,34.125,-38.51250076293945
1694728339972247000,19.9732470703125,21.131250381469727,33.95625305175781,-38.41875076293945
1694728339992247600,19.99324755859375,19.6875,34.21875,-38.23125076293945
1694728340012247600,20.01324755859375,19.59375,34.931251525878906,-38.00625228881836
1694728340032243200,20.0332431640625,16.387500762939453,36.431251525878906,-37.40625
1694728340052243700,20.05324365234375,15.131250381469727,37.42500305175781,-36.993751525878906
1694728340072251400,20.07325146484375,13.593750953674316,38.47500228881836,-36.97500228881836
1694728340092245500,20.09324560546875,13.08750057220459,39.73125076293945,-36.45000076293945
1694728340112236500,20.113236572265624,14.02500057220459,39.11250305175781,-36.150001525878906
1694728340132236800,20.13323681640625,15.356250762939453,38.38125228881836,-37.16250228881836
1694728340152235800,20.15323583984375,15.468750953674316,37.6875,-37.087501525878906
1694728340172229000,20.17322900390625,15.768750190734863,37.59375,-36.88125228881836
1694728340192238600,20.193238525390626,15.112500190734863,36.95625305175781,-38.118751525878906
1694728340212242000,20.213241943359375,14.175000190734863,37.20000076293945,-38.53125
1694728340232245000,20.233244873046875,11.793750762939453,37.63125228881836,-38.55000305175781
1694728340252250000,20.25325,11.90625,37.81875228881836,-38.4375
1694728340272249900,20.273249755859375,11.287500381469727,38.625,-37.72500228881836
1694728340292256500,20.293256591796876,9.84375,39.69375228881836,-37.51875305175781
1694728340312249900,20.313249755859374,8.11875057220459,41.94375228881836,-35.55000305175781
1694728340332248000,20.333248046875,7.293750286102295,41.868751525878906,-34.96875
1694728340352246500,20.35324658203125,6.262500286102295,41.962501525878906,-34.462501525878906
1694728340372255500,20.37325537109375,5.231250286102295,42.84375,-34.368751525878906
1694728340392262700,20.3932626953125,4.725000381469727,42.86250305175781,-34.06875228881836
1694728340412252700,20.413252685546876,2.7562501430511475,43.40625,-33.26250076293945
1694728340432244700,20.43324462890625,0.15000000596046448,43.743751525878906,-33.60000228881836
1694728340452233700,20.453233642578127,-1.2750000953674316,43.743751525878906,-33.01875305175781
1694728340472237600,20.473237548828124,-2.71875,44.38125228881836,-32.00625228881836
1694728340492247300,20.493247314453125,-3.7687501907348633,44.56875228881836,-31.818750381469727
1694728340512243200,20.5132431640625,-4.575000286102295,44.493751525878906,-31.012500762939453
1694728340532247300,20.533247314453124,-5.71875,44.493751525878906,-30.525001525878906
1694728340552257800,20.5532578125,-6.525000095367432,45.13125228881836,-29.812501907348633
1694728340572261600,20.57326171875,-6.206250190734863,45.337501525878906,-29.100000381469727
1694728340592260400,20.59326025390625,-7.743750095367432,45.618751525878906,-28.218751907348633
1694728340612254700,20.613254638671876,-7.856250286102295,45.54375076293945,-27.712501525878906
1694728340632250000,20.63325,-8.15625,45.618751525878906,-27.712501525878906
1694728340652249900,20.653249755859374,-9.206250190734863,45.54375076293945,-27.412500381469727
1694728340672246300,20.673246337890625,-8.981250762939453,45.11250305175781,-27.037500381469727
1694728340692243700,20.69324365234375,-7.725000381469727,45.46875,-26.793750762939453
1694728340712244700,20.71324462890625,-6.993750095367432,46.10625076293945,-26.568750381469727
1694728340732253000,20.7332529296875,-4.931250095367432,46.10625076293945,-27.037500381469727
1694728340752247600,20.75324755859375,-2.8500001430511475,45.5625,-27.131250381469727
1694728340772239000,20.773239013671876,-0.8812500238418579,45.54375076293945,-28.218751907348633
1694728340792239900,20.793239990234376,2.0812501907348633,43.743751525878906,-29.92500114440918
1694728340812228000,20.81322802734375,4.125,43.44375228881836,-31.537500381469727
1694728340832223700,20.8332236328125,5.34375,42.1875,-32.962501525878906
1694728340852235500,20.853235595703126,6.375000476837158,41.79375076293945,-34.06875228881836
1694728340872230000,20.87322998046875,6.975000381469727,40.181251525878906,-35.306251525878906
1694728340892233000,20.89323291015625,7.162500381469727,40.16250228881836,-35.92500305175781
1694728340912242400,20.913242431640626,8.625,39.63750076293945,-36.01875305175781
1694728340932246000,20.93324609375,10.6875,38.64375305175781,-36.91875076293945
1694728340952255500,20.95325537109375,12.112500190734863,37.837501525878906,-37.63125228881836
1694728340972247300,20.973247314453126,13.55625057220459,36.84375,-38.13750076293945
1694728340992259000,20.993259033203124,15.843750953674316,35.79375076293945,-37.837501525878906
1694728341012256300,21.01325634765625,17.512500762939453,34.837501525878906,-37.63125228881836
1694728341032249300,21.033249267578125,19.59375,34.42500305175781,-37.10625076293945
1694728341052247800,21.053247802734376,20.73750114440918,33.45000076293945,-36.91875076293945
1694728341072242700,21.07324267578125,20.53125,33.82500076293945,-36.31875228881836
1694728341092238000,21.093238037109376,20.55000114440918,34.275001525878906,-35.98125076293945
1694728341112231700,21.113231689453126,18.787500381469727,35.587501525878906,-36.07500076293945
1694728341132234000,21.13323388671875,17.45625114440918,36.41250228881836,-35.26875305175781
1694728341152231700,21.153231689453126,14.756250381469727,37.91250228881836,-34.96875
1694728341172225800,21.173225830078124,15.506250381469727,38.47500228881836,-33.82500076293945
1694728341192236300,21.193236328125,17.793750762939453,37.51875305175781,-33.82500076293945
1694728341212240400,21.213240478515626,18.712501525878906,36.97500228881836,-34.33125305175781
1694728341232232400,21.233232421875,19.650001525878906,36.45000076293945,-33.9375
1694728341252240600,21.25324072265625,19.762500762939453,35.83125305175781,-33.84375
1694728341272243000,21.273242919921874,20.887500762939453,35.90625,-34.33125305175781
1694728341292252000,21.293251953125,19.537500381469727,35.98125076293945,-34.650001525878906
1694728341312247000,21.3132470703125,18.712501525878906,35.92500305175781,-33.54375076293945
1694728341332246500,21.33324658203125,17.887500762939453,37.3125,-34.42500305175781
1694728341352246000,21.35324609375,17.287500381469727,38.04375076293945,-33.618751525878906
1694728341372248800,21.373248779296876,16.03125,39.01875305175781,-33.30000305175781
1694728341392258000,21.393258056640626,14.175000190734863,39.91875076293945,-32.79375076293945
1694728341412242000,21.413241943359374,12.225000381469727,41.08125305175781,-32.08125305175781
1694728341432236300,21.433236328125,9.84375,42.056251525878906,-31.687501907348633
1694728341452246000,21.45324609375,9.84375,42.41250228881836,-31.162500381469727
1694728341472231700,21.473231689453126,7.575000286102295,42.86250305175781,-30.787500381469727
1694728341492239600,21.493239501953123,6.956250190734863,43.40625,-30.48750114440918
1694728341512237600,21.513237548828126,5.925000190734863,43.66875076293945,-30.075000762939453
1694728341532243700,21.53324365234375,4.987500190734863,43.931251525878906,-29.887500762939453
1694728341552255700,21.553255859375,3.656250238418579,44.83125305175781,-29.17500114440918
1694728341572260600,21.573260498046874,1.4625000953674316,44.83125305175781,-29.006250381469727
1694728341592260000,21.593260009765626,1.3687500953674316,44.92500305175781,-28.70625114440918
1694728341612255000,21.6132548828125,0.3375000059604645,44.94375228881836,-28.312501907348633
1694728341632251100,21.633251220703126,-1.6125000715255737,45.65625,-27.412500381469727
1694728341652251000,21.6532509765625,-2.2125000953674316,45.48750305175781,-26.92500114440918
1694728341672241200,21.6732412109375,-3.8812501430511475,45.31875228881836,-26.437501907348633
1694728341692239400,21.6932392578125,-4.481250286102295,46.14375305175781,-25.61250114440918
1694728341712241400,21.713241455078126,-5.512500286102295,46.16250228881836,-24.525001525878906
1694728341732251000,21.7332509765625,-5.512500286102295,46.06875228881836,-24.525001525878906
1694728341752246800,21.753246826171875,-6.543750286102295,46.25625228881836,-23.83125114440918
1694728341772238800,21.77323876953125,-5.8125,46.275001525878906,-23.71875
1694728341792239900,21.793239990234376,-6.112500190734863,46.80000305175781,-23.8125
1694728341812231400,21.8132314453125,-5.71875,46.275001525878906,-23.71875
1694728341832227300,21.833227294921876,-3.937500238418579,46.53750228881836,-23.887500762939453
1694728341852238600,21.853238525390626,-1.9875000715255737,46.35000228881836,-24.562501907348633
1694728341872232200,21.873232177734376,0.28125,46.44375228881836,-25.031251907348633
1694728341892234500,21.893234375,3.5812501907348633,45.78750228881836,-26.73750114440918
1694728341912243500,21.913243408203126,5.962500095367432,44.962501525878906,-27.731250762939453
1694728341932246500,21.93324658203125,8.325000762939453,43.85625076293945,-29.943750381469727
1694728341952256000,21.953256103515624,8.512500762939453,43.40625,-30.95625114440918
1694728341972258800,21.9732587890625,8.381250381469727,42.375,-32.41875076293945
1694728341992249000,21.9932490234375,8.137500762939453,41.10000228881836,-34.16250228881836
1694728342012248000,22.013248046875,9.05625057220459,40.63125228881836,-34.875
1694728342032243700,22.03324365234375,11.006250381469727,39.91875076293945,-35.868751525878906
1694728342052243700,22.05324365234375,11.325000762939453,39.30000305175781,-35.775001525878906
1694728342072241000,22.073240966796874,13.800000190734863,38.38125228881836,-36.78750228881836
1694728342092237300,22.0932373046875,15.881250381469727,37.33125305175781,-36.67500305175781
1694728342112233000,22.11323291015625,18.67500114440918,36.65625,-36.5625
1694728342132234800,22.13323486328125,19.725000381469727,36.056251525878906,-35.55000305175781
1694728342152236500,22.153236572265627,21.618751525878906,35.98125076293945,-34.81875228881836
1694728342172231400,22.1732314453125,21.712501525878906,35.625,-35.23125076293945
1694728342192240400,22.193240478515627,21.412500381469727,35.64375305175781,-34.23750305175781
1694728342212243500,22.213243408203127,19.856250762939453,36.78750228881836,-34.51875305175781
1694728342232235000,22.233235107421876,17.587501525878906,38.38125228881836,-34.10625076293945
1694728342252242400,22.253242431640626,16.03125,39.28125,-33.48750305175781
1694728342272244200,22.273244140625,16.256250381469727,39.73125076293945,-33.48750305175781
1694728342292252700,22.293252685546875,17.92500114440918,39.75,-33.056251525878906
1694728342312247300,22.313247314453125,19.05000114440918,38.41875076293945,-33.26250076293945
1694728342332250000,22.33325,19.575000762939453,38.0625,-33.07500076293945
1694728342352249000,22.3532490234375,20.287500381469727,37.368751525878906,-33.07500076293945
1694728342372251000,22.3732509765625,20.381250381469727,36.63750076293945,-33.618751525878906
1694728342392259000,22.393259033203126,19.556251525878906,36.35625076293945,-33.9375
1694728342412259300,22.41325927734375,18.637500762939453,37.44375228881836,-33.20625305175781
1694728342432250400,22.43325048828125,18.318750381469727,38.23125076293945,-33.28125
1694728342452238000,22.453238037109376,18.337501525878906,38.17500305175781,-32.47500228881836
1694728342472226800,22.473226806640625,17.8125,39.13125228881836,-32.36250305175781
1694728342492235000,22.493235107421874,15.33750057220459,40.38750076293945,-31.668750762939453
1694728342512234000,22.51323388671875,13.068750381469727,41.19375228881836,-31.462501525878906
1694728342532240600,22.53324072265625,10.36875057220459,42.31875228881836,-31.668750762939453
1694728342552253200,22.553253173828125,9.75,42.431251525878906,-30.76875114440918
1694728342572259000,22.573259033203126,7.575000286102295,43.40625,-30.262500762939453
1694728342592259000,22.593259033203125,7.593750476837158,43.51875305175781,-29.756250381469727
1694728342612254500,22.61325439453125,6.562500476837158,43.96875,-29.062501907348633
1694728342632251400,22.63325146484375,5.006250381469727,44.587501525878906,-28.856250762939453
1694728342652251100,22.653251220703126,3.8812501430511475,44.88750076293945,-27.76875114440918
1694728342672241200,22.6732412109375,1.8000000715255737,44.94375228881836,-27.993751525878906
1694728342692253700,22.693253662109374,0.24375000596046448,45.39375305175781,-27.39375114440918
1694728342712252400,22.71325244140625,-2.0250000953674316,45.31875228881836,-27.337501525878906
1694728342732258800,22.7332587890625,-2.0062501430511475,45.337501525878906,-26.325000762939453
1694728342752251600,22.753251708984376,-2.512500047683716,46.23750305175781,-25.593751907348633
1694728342772241700,22.77324169921875,-3.543750047683716,45.993751525878906,-24.39375114440918
1694728342792241400,22.793241455078125,-4.050000190734863,46.181251525878906,-23.90625
1694728342812229000,22.81322900390625,-4.762500286102295,46.275001525878906,-23.306251525878906
1694728342832228900,22.833228759765625,-5.268750190734863,46.48125076293945,-22.5
1694728342852227800,22.853227783203124,-5.887500286102295,46.650001525878906,-22.5
1694728342872223700,22.8732236328125,-5.793750286102295,46.125,-22.012500762939453
1694728342892239400,22.8932392578125,-4.331250190734863,46.76250076293945,-22.162500381469727
1694728342912247600,22.91324755859375,-3.281250238418579,47.13750076293945,-21.731250762939453
1694728342932249600,22.93324951171875,-1.3125,47.04375076293945,-22.012500762939453
1694728342952258000,22.953258056640625,0.9375000596046448,46.38750076293945,-23.418750762939453
1694728342972249000,22.9732490234375,3.937500238418579,46.125,-24.093751907348633
1694728342992248800,22.993248779296874,6.918750286102295,44.66250228881836,-26.006250381469727
1694728343012248800,23.013248779296877,9.393750190734863,43.95000076293945,-26.906251907348633
1694728343032247000,23.0332470703125,9.881250381469727,42.5625,-29.250001907348633
1694728343052246300,23.053246337890624,9.862500190734863,41.8125,-30.375001907348633
1694728343072242000,23.073241943359374,10.03125,40.98750305175781,-31.818750381469727
1694728343092237800,23.09323779296875,10.83750057220459,39.54375076293945,-33.16875076293945
1694728343112232400,23.113232421875,11.756250381469727,39.337501525878906,-34.25625228881836
1694728343132242200,23.1332421875,12.975000381469727,38.0625,-35.587501525878906
1694728343152237800,23.15323779296875,14.943750381469727,37.01250076293945,-35.587501525878906
1694728343172237800,23.17323779296875,17.137500762939453,35.868751525878906,-35.493751525878906
1694728343192245200,23.193245361328124,19.837501525878906,35.00625228881836,-34.875
1694728343212246800,23.213246826171876,21.506250381469727,34.59375,-34.14375305175781
1694728343232236800,23.23323681640625,23.08125114440918,33.91875076293945,-32.94375228881836
1694728343252243200,23.2532431640625,24.243751525878906,33.48750305175781,-32.32500076293945
1694728343272244500,23.273244384765626,23.71875,33.22500228881836,-32.04375076293945
1694728343292252400,23.29325244140625,23.53125,34.66875076293945,-31.200000762939453
1694728343312247000,23.3132470703125,20.006250381469727,36.431251525878906,-31.293750762939453
1694728343332247000,23.3332470703125,17.118751525878906,38.306251525878906,-30.281251907348633
1694728343352247000,23.3532470703125,16.40625,39.54375076293945,-29.943750381469727
1694728343372249300,23.373249267578124,17.962501525878906,39.11250305175781,-29.83125114440918
1694728343392258000,23.393258056640626,19.40625,37.70625305175781,-30.168750762939453
1694728343412242000,23.413241943359374,20.006250381469727,36.35625076293945,-30.900001525878906
1694728343432236000,23.433236083984376,18.525001525878906,35.60625076293945,-32.34375
1694728343452238800,23.45323876953125,18.225000381469727,35.60625076293945,-31.950000762939453
1694728343472226300,23.473226318359377,18.337501525878906,35.98125076293945,-31.33125114440918
1694728343492236000,23.493236083984375,19.387500762939453,35.90625,-30.918750762939453
1694728343512235000,23.513235107421874,18.76875114440918,36.243751525878906,-30.918750762939453
1694728343532242000,23.533241943359375,18.356250762939453,36.712501525878906,-30.318750381469727
1694728343552254500,23.55325439453125,16.40625,37.70625305175781,-29.493751525878906
1694728343572260000,23.573260009765626,14.943750381469727,38.47500228881836,-29.793750762939453
1694728343592259800,23.593259765625,12.468750953674316,39.01875305175781,-29.325000762939453
1694728343612255000,23.6132548828125,11.53125,39.375,-29.212501525878906
1694728343632259300,23.63325927734375,10.08750057220459,39.65625,-28.61250114440918
1694728343652257300,23.65325732421875,9.262500762939453,39.9375,-27.712501525878906
1694728343672243700,23.67324365234375,7.612500190734863,40.556251525878906,-27.525001525878906
1694728343692250400,23.69325048828125,6.056250095367432,40.63125228881836,-27.243751525878906
1694728343712249600,23.71324951171875,4.706250190734863,40.72500228881836,-27.356250762939453
1694728343732256500,23.733256591796874,3.0562500953674316,41.00625228881836,-26.568750381469727
1694728343752250600,23.753250732421876,1.912500023841858,41.08125305175781,-26.08125114440918
1694728343772242000,23.773241943359373,0.35625001788139343,41.00625228881836,-25.80000114440918
1694728343792241400,23.793241455078125,-0.45000001788139343,40.76250076293945,-24.918750762939453
1694728343812227300,23.813227294921877,-0.4312500059604645,41.118751525878906,-24.506250381469727
1694728343832223000,23.833222900390624,-1.3687500953674316,40.81875228881836,-22.89375114440918
1694728343852234800,23.85323486328125,-1.9875000715255737,40.462501525878906,-22.61250114440918
1694728343872229000,23.87322900390625,-2.6812500953674316,40.125,-21.731250762939453
1694728343892243500,23.893243408203126,-2.90625,39.67500305175781,-21.337501525878906
1694728343912250400,23.91325048828125,-3.4125001430511475,38.71875,-20.962501525878906
1694728343932252000,23.933251953125,-3.5250000953674316,38.00625228881836,-20.681251525878906
1694728343952259600,23.953259521484377,-3.825000047683716,37.21875,-20.418750762939453
1694728343972261000,23.97326123046875,-3.0187501907348633,35.625,-20.34375
1694728343992257800,23.9932578125,-2.2875001430511475,34.91250228881836,-20.36250114440918
1694728344012255700,24.013255859375,-1.9875000715255737,32.94375228881836,-21.01875114440918
1694728344032249300,24.033249267578125,-2.625,30.468751907348633,-21.39375114440918
1694728344052247300,24.053247314453124,-3.281250238418579,27.95625114440918,-21.881250381469727
1694728344072234200,24.073234130859376,-5.268750190734863,26.437501907348633,-22.368751525878906
1694728344092232400,24.093232421875,-10.08750057220459,25.106250762939453,-24.881250381469727
1694728344112227000,24.11322705078125,-14.793750762939453,23.71875,-26.306251525878906
1694728344132241000,24.133240966796876,-18.806251525878906,23.34375,-29.906251907348633
1694728344152237000,24.153237060546875,-21.58125114440918,22.931251525878906,-35.41875076293945
1694728344172237300,24.1732373046875,-20.92500114440918,22.575000762939453,-39.337501525878906
1694728344192245000,24.193244873046876,-19.537500381469727,21.9375,-43.57500076293945
1694728344212246800,24.213246826171876,-17.26875114440918,21.806251525878906,-45.375
1694728344232237000,24.233237060546877,-14.287500381469727,22.293750762939453,-47.53125
1694728344252243500,24.253243408203126,-11.0625,22.668750762939453,-48.187503814697266
1694728344272244700,24.27324462890625,-8.68125057220459,23.36250114440918,-48.431251525878906
1694728344292252700,24.293252685546875,-6.281250476837158,23.287500381469727,-48.50625228881836
1694728344312247300,24.313247314453125,-4.40625,23.850000381469727,-47.85000228881836
1694728344332240100,24.333240234375,-4.087500095367432,24.58125114440918,-47.118751525878906
1694728344352240000,24.353240234375,-4.78125,24.975000381469727,-45.50625228881836
1694728344372244000,24.373243896484375,-7.050000190734863,24.900001525878906,-44.212501525878906
1694728344392254500,24.39325439453125,-9.33750057220459,24.637500762939453,-43.556251525878906
1694728344412239400,24.4132392578125,-11.193750381469727,24.993751525878906,-42.97500228881836
1694728344432236500,24.433236572265624,-12.33750057220459,25.33125114440918,-43.6875
1694728344452229000,24.45322900390625,-12.581250190734863,25.89375114440918,-46.29375076293945
1694728344472220000,24.473219970703123,-12.33750057220459,25.537500381469727,-50.025001525878906
1694728344492230700,24.493230712890625,-11.943750381469727,25.031251907348633,-51.95625305175781
1694728344512231700,24.513231689453125,-14.40000057220459,24.318750381469727,-55.743751525878906
1694728344532240100,24.533240234375,-15.543750762939453,24.543750762939453,-56.66250228881836
1694728344552253700,24.553253662109373,-16.087501525878906,24.281251907348633,-56.88750076293945
1694728344572260000,24.573260009765626,-17.568750381469727,24.39375114440918,-59.531253814697266
1694728344592260000,24.593260009765626,-17.981250762939453,24.918750762939453,-59.625003814697266
1694728344612255500,24.61325537109375,-18.412500381469727,24.787500381469727,-61.031253814697266
1694728344632251600,24.633251708984375,-19.462501525878906,24.168750762939453,-60.86250305175781
1694728344652251400,24.65325146484375,-22.05000114440918,24.431251525878906,-60.30000305175781
1694728344672240400,24.673240478515623,-22.668750762939453,24.787500381469727,-60.187503814697266
1694728344692242000,24.693241943359375,-23.71875,25.05000114440918,-60.30000305175781
1694728344712243500,24.713243408203127,-23.606250762939453,25.33125114440918,-59.79375076293945
1694728344732252200,24.733252197265625,-24.11250114440918,25.162500381469727,-59.400001525878906
1694728344752247300,24.753247314453127,-26.193750381469727,24.975000381469727,-59.32500076293945
1694728344772239600,24.773239501953125,-27.95625114440918,24.712501525878906,-58.556251525878906
1694728344792240400,24.793240478515624,-29.400001525878906,24.712501525878906,-58.16250228881836
1694728344812225800,24.813225830078125,-31.668750762939453,24.39375114440918,-57.11250305175781
1694728344832222500,24.833222412109375,-34.06875228881836,24.637500762939453,-57.63750076293945
1694728344852235000,24.853235107421874,-34.89375305175781,24.30000114440918,-56.64375305175781
1694728344872229600,24.873229736328124,-35.71875,25.068750381469727,-57.35625076293945
1694728344892244000,24.893243896484375,-36.056251525878906,24.76875114440918,-58.76250076293945
1694728344912251100,24.913251220703124,-35.75625228881836,24.48750114440918,-59.88750076293945
1694728344932252400,24.93325244140625,-34.44375228881836,25.387500762939453,-62.45625305175781
1694728344952260000,24.953260009765625,-33.01875305175781,26.156251907348633,-64.23750305175781
1694728344972261600,24.97326171875,-29.812501907348633,26.981250762939453,-66.69375610351562
1694728344992258000,24.993258056640624,-26.718751907348633,28.406251907348633,-67.81875610351562
1694728345012255000,25.0132548828125,-21.9375,30.525001525878906,-68.4937515258789
1694728345032248000,25.033248046875,-14.325000762939453,33.22500228881836,-68.1187515258789
1694728345052246300,25.053246337890624,-8.568750381469727,35.28750228881836,-65.13750457763672
1694728345072241200,25.0732412109375,-1.5187500715255737,36.69375228881836,-59.962501525878906
1694728345092237800,25.09323779296875,2.0625,37.23750305175781,-56.156253814697266
1694728345112230100,25.113230224609374,6.187500476837158,36.5625,-52.181251525878906
1694728345132246500,25.13324658203125,9.84375,36.1875,-49.91250228881836
1694728345152241000,25.153240966796876,11.53125,35.26875305175781,-47.79375076293945
1694728345172240000,25.173239990234375,11.231250762939453,35.28750228881836,-47.00625228881836
1694728345192246500,25.19324658203125,9.787500381469727,35.38125228881836,-46.81875228881836
1694728345212247300,25.213247314453124,10.518750190734863,35.118751525878906,-46.70625305175781
1694728345232238800,25.23323876953125,10.93125057220459,35.56875228881836,-46.29375076293945
1694728345252244500,25.253244384765626,11.77500057220459,35.0625,-45.67500305175781
1694728345272245200,25.273245361328126,13.668750762939453,34.368751525878906,-45.16875076293945
1694728345292253000,25.2932529296875,15.43125057220459,33.78750228881836,-44.36250305175781
1694728345312247000,25.3132470703125,17.212501525878906,33.1875,-43.14375305175781
1694728345332238800,25.33323876953125,19.40625,33.67500305175781,-42.1875
1694728345352239400,25.3532392578125,21.806251525878906,32.47500228881836,-41.0625
1694728345372243500,25.373243408203123,22.96875,32.400001525878906,-40.14375305175781
1694728345392254200,25.393254150390625,23.512500762939453,32.51250076293945,-39.13125228881836
1694728345412239000,25.413239013671873,23.625,32.8125,-38.41875076293945
1694728345432234800,25.43323486328125,22.087501525878906,34.51875305175781,-37.57500076293945
1694728345452238300,25.45323828125,20.325000762939453,35.66250228881836,-37.275001525878906
1694728345472226000,25.47322607421875,18.58125114440918,37.01250076293945,-36.35625076293945
1694728345492235300,25.4932353515625,16.106250762939453,37.98750305175781,-35.75625228881836
1694728345512234800,25.51323486328125,16.51875114440918,38.4375,-35.4375
1694728345532242000,25.533241943359375,17.868751525878906,37.556251525878906,-35.73750305175781
1694728345552254700,25.553254638671874,19.33125114440918,36.95625305175781,-35.13750076293945
1694728345572260400,25.57326025390625,19.931251525878906,36.337501525878906,-35.34375
1694728345592260000,25.593260009765626,20.043750762939453,36.41250228881836,-35.025001525878906
1694728345612255500,25.61325537109375,19.537500381469727,36.337501525878906,-35.23125076293945
1694728345632251100,25.633251220703126,17.568750381469727,37.125,-35.25
1694728345652251000,25.6532509765625,16.931251525878906,37.66875076293945,-34.837501525878906
1694728345672241000,25.673240966796875,15.693750381469727,38.71875,-34.63125228881836
1694728345692242000,25.693241943359375,15.918750762939453,39.35625076293945,-34.20000076293945
1694728345712243500,25.713243408203127,14.175000190734863,40.70625305175781,-33.48750305175781
1694728345732252200,25.733252197265625,12.412500381469727,41.15625,-32.587501525878906
1694728345752247800,25.753247802734375,9.61875057220459,42.5625,-32.681251525878906
1694728345772242700,25.77324267578125,9.225000381469727,43.20000076293945,-31.968751907348633
1694728345792244500,25.793244384765625,7.987500190734863,43.48125076293945,-31.275001525878906
1694728345812229400,25.8132294921875,6.956250190734863,43.743751525878906,-30.67500114440918
1694728345832227800,25.833227783203125,6.018750190734863,44.36250305175781,-30.468751907348633
1694728345852227300,25.853227294921876,4.275000095367432,44.64375305175781,-29.887500762939453
1694728345872223500,25.873223388671875,3.656250238418579,45.09375,-29.26875114440918
1694728345892239400,25.8932392578125,1.7812501192092896,44.94375228881836,-28.593751907348633
1694728345912247600,25.91324755859375,0.65625,45.30000305175781,-27.881250381469727
1694728345932249900,25.933249755859375,-0.24375000596046448,46.01250076293945,-27.48750114440918
1694728345952258600,25.953258544921876,-2.0250000953674316,45.84375,-27.412500381469727
1694728345972260600,25.973260498046876,-2.7375001907348633,46.29375076293945,-26.606250762939453
1694728345992259600,25.993259521484376,-3.9750001430511475,46.21875,-26.025001525878906
1694728346012256800,26.0132568359375,-4.275000095367432,46.25625228881836,-24.806251525878906
1694728346032249600,26.03324951171875,-6.225000381469727,46.51875305175781,-24.11250114440918
1694728346052247800,26.053247802734376,-6.637500286102295,46.80000305175781,-23.625
1694728346072234500,26.073234375,-7.031250476837158,46.72500228881836,-22.61250114440918
1694728346092232400,26.093232421875,-7.237500190734863,46.743751525878906,-22.3125
1694728346112226300,26.113226318359374,-7.762500286102295,46.81875228881836,-22.61250114440918
1694728346132247300,26.133247314453126,-6.637500286102295,47.34375,-23.100000381469727
1694728346152242700,26.15324267578125,-5.268750190734863,47.19375228881836,-22.068750381469727
1694728346172241700,26.17324169921875,-2.3625001907348633,47.28750228881836,-22.631250381469727
1694728346192248000,26.193248046875,-0.5062500238418579,47.17500305175781,-23.418750762939453
1694728346212248600,26.21324853515625,2.4937500953674316,46.81875228881836,-24.093751907348633
1694728346232238600,26.233238525390625,6.206250190734863,45.91875076293945,-25.687501907348633
1694728346252244200,26.253244140625,8.58750057220459,45.1875,-26.662500381469727
1694728346272245000,26.273244873046874,9.487500190734863,44.34375,-28.500001907348633
1694728346292252700,26.293252685546875,8.53125,43.61250305175781,-29.64375114440918
1694728346312247000,26.3132470703125,8.381250381469727,42.5625,-31.89375114440918
1694728346332238000,26.333238037109375,9.61875057220459,41.868751525878906,-32.19375228881836
1694728346352248000,26.353248046875,11.77500057220459,40.95000076293945,-33.50625228881836
1694728346372250000,26.37325,12.71250057220459,40.23750305175781,-33.82500076293945
1694728346392258800,26.3932587890625,14.77500057220459,39.35625076293945,-34.01250076293945
1694728346412242400,26.413242431640626,16.650001525878906,38.38125228881836,-34.125
1694728346432236500,26.433236572265624,19.350000381469727,37.42500305175781,-33.900001525878906
1694728346452240000,26.453239990234376,21.225000381469727,36.82500076293945,-33.48750305175781
1694728346472227300,26.473227294921877,21.9375,36.11250305175781,-33.50625228881836
1694728346492238300,26.49323828125,22.6875,35.681251525878906,-32.79375076293945
1694728346512236800,26.51323681640625,22.89375114440918,36.056251525878906,-32.28750228881836
1694728346532243200,26.5332431640625,21.975000381469727,36.58125305175781,-32.17500305175781
1694728346552255200,26.553255126953125,19.59375,38.79375076293945,-32.04375076293945
1694728346572249000,26.5732490234375,16.481250762939453,39.431251525878906,-31.256250381469727
1694728346592251400,26.59325146484375,15.450000762939453,40.931251525878906,-31.23750114440918
1694728346612248800,26.613248779296875,16.89375114440918,40.48125076293945,-31.537500381469727
1694728346632246800,26.633246826171874,18.975000381469727,39.07500076293945,-31.743751525878906
1694728346652248000,26.653248046875,19.068750381469727,38.45625305175781,-31.556251525878906
1694728346672238000,26.673238037109375,19.275001525878906,38.00625228881836,-31.875001907348633
1694728346692252000,26.693251953125,19.78125,37.368751525878906,-32.88750076293945
1694728346712251600,26.713251708984377,18.525001525878906,37.61250305175781,-33.09375
1694728346732258600,26.733258544921874,17.381250381469727,37.96875,-33.41250228881836
1694728346752252200,26.753252197265624,17.193750381469727,38.0625,-32.60625076293945
1694728346772243700,26.77324365234375,17.306251525878906,38.962501525878906,-32.38125228881836
1694728346792246500,26.79324658203125,16.368751525878906,39.67500305175781,-32.0625
1694728346812231200,26.813231201171874,13.27500057220459,40.837501525878906,-31.275001525878906
1694728346832230100,26.833230224609373,11.49375057220459,41.53125,-31.481250762939453
1694728346852228900,26.853228759765624,9.637500762939453,42.150001525878906,-31.275001525878906
1694728346872224300,26.873224365234375,8.40000057220459,42.78750228881836,-30.67500114440918
