time,seconds_elapsed,z,y,x
1694682675994721000,0.148720947265625,-34.01250076293945,-35.36250305175781,13.631250381469727
1694682676014726100,0.16872607421875,-32.47500228881836,-35.38125228881836,13.031250953674316
1694682676034735900,0.18873583984375,-33.09375,-36.1875,13.106250762939453
1694682676054760000,0.208760009765625,-32.60625076293945,-36.65625,11.58750057220459
1694682676074792000,0.2287919921875,-32.10000228881836,-37.03125,10.875
1694682676094831000,0.2488310546875,-31.387500762939453,-37.462501525878906,10.6875
1694682676114860800,0.26886083984375,-31.725000381469727,-38.32500076293945,8.737500190734863
1694682676134877400,0.28887744140625,-31.218751907348633,-39.056251525878906,8.006250381469727
1694682676154887200,0.30888720703125,-31.125001907348633,-38.962501525878906,7.706250190734863
1694682676174897200,0.328897216796875,-30.712501525878906,-39.337501525878906,7.293750286102295
1694682676194895400,0.348895263671875,-31.012500762939453,-39.431251525878906,6.993750095367432
1694682676214898700,0.368898681640625,-31.350000381469727,-39.09375,5.793750286102295
1694682676234887700,0.3888876953125,-31.462501525878906,-38.681251525878906,5.081250190734863
1694682676254884600,0.408884521484375,-31.05000114440918,-38.51250076293945,4.800000190734863
1694682676274867000,0.428866943359375,-32.71875,-38.51250076293945,4.78125
1694682676294873900,0.448873779296875,-32.60625076293945,-38.60625076293945,4.668750286102295
1694682676314874000,0.4688740234375,-32.60625076293945,-38.32500076293945,5.193750381469727
1694682676334864000,0.48886376953125,-32.71875,-37.70625305175781,5.006250381469727
1694682676354874400,0.508874267578125,-32.60625076293945,-37.61250305175781,5.118750095367432
1694682676374878500,0.52887841796875,-32.28750228881836,-37.875,5.418750286102295
1694682676394877400,0.54887744140625,-32.0625,-37.95000076293945,5.90625
1694682676414883600,0.568883544921875,-32.587501525878906,-38.04375076293945,6.093750476837158
1694682676434876700,0.588876708984375,-31.98750114440918,-38.23125076293945,4.78125
1694682676454874400,0.608874267578125,-32.00625228881836,-37.91250228881836,3.7875001430511475
1694682676474868700,0.62886865234375,-32.118751525878906,-38.28750228881836,3.4875001907348633
1694682676494863600,0.648863525390625,-31.70625114440918,-38.212501525878906,2.3812501430511475
1694682676514870800,0.668870849609375,-32.55000305175781,-38.15625,1.7625000476837158
1694682676534865700,0.68886572265625,-32.868751525878906,-37.89375305175781,1.5562500953674316
1694682676554869000,0.708868896484375,-33.39375305175781,-37.81875228881836,0.65625
1694682676574860000,0.728860107421875,-33.618751525878906,-37.6875,-0.5437500476837158
1694682676594860500,0.748860595703125,-34.25625228881836,-37.16250228881836,-0.956250011920929
1694682676614862800,0.76886279296875,-33.84375,-36.91875076293945,-2.15625
1694682676634855400,0.78885546875,-33.95625305175781,-37.01250076293945,-2.5687501430511475
1694682676654859300,0.808859375,-34.59375,-36.50625228881836,-3.356250047683716
1694682676674851600,0.8288515625,-34.70625305175781,-36.26250076293945,-4.068750381469727
1694682676694864600,0.84886474609375,-34.181251525878906,-35.90625,-3.937500238418579
1694682676714870800,0.868870849609375,-35.23125076293945,-35.75625228881836,-4.856250286102295
1694682676734871300,0.888871337890625,-34.72500228881836,-35.587501525878906,-5.25
1694682676754878700,0.908878662109375,-34.42500305175781,-35.70000076293945,-6.468750476837158
1694682676774868700,0.92886865234375,-34.743751525878906,-35.60625076293945,-6.262500286102295
1694682676794879200,0.948879150390625,-34.03125,-35.98125076293945,-7.462500095367432
1694682676814883300,0.96888330078125,-34.125,-36.07500076293945,-7.687500476837158
1694682676834875400,0.98887548828125,-34.66875076293945,-35.83125305175781,-8.287500381469727
1694682676854871800,1.008871826171875,-33.63750076293945,-35.75625228881836,-8.568750381469727
1694682676874865000,1.028864990234375,-33.84375,-35.75625228881836,-8.662500381469727
1694682676894867000,1.048866943359375,-34.368751525878906,-35.32500076293945,-9.168750762939453
1694682676914857000,1.06885693359375,-33.31875228881836,-35.75625228881836,-8.86875057220459
1694682676934845200,1.08884521484375,-34.06875228881836,-35.17500305175781,-10.162500381469727
1694682676954843600,1.10884375,-34.48125076293945,-35.51250076293945,-10.08750057220459
1694682676974843100,1.128843017578125,-33.03750228881836,-36.22500228881836,-10.387500762939453
1694682676994854100,1.148854248046875,-32.92500305175781,-35.962501525878906,-10.27500057220459
1694682677014870300,1.168870361328125,-33.337501525878906,-35.51250076293945,-10.387500762939453
1694682677034871300,1.188871337890625,-33.243751525878906,-35.71875,-10.575000762939453
1694682677054875000,1.208875,-32.19375228881836,-36.150001525878906,-10.575000762939453
1694682677074873000,1.228873046875,-31.781251907348633,-36.150001525878906,-10.668750762939453
1694682677094878500,1.24887841796875,-32.625,-36.243751525878906,-11.193750381469727
1694682677114878500,1.26887841796875,-32.32500076293945,-36.16875076293945,-11.287500381469727
1694682677134873900,1.288873779296875,-31.593751907348633,-36.243751525878906,-10.987500190734863
1694682677154869800,1.308869873046875,-32.212501525878906,-36.07500076293945,-11.58750057220459
1694682677174865700,1.32886572265625,-31.593751907348633,-36.16875076293945,-11.081250190734863
1694682677194863000,1.348863037109375,-32.53125,-35.90625,-11.887500762939453
1694682677214868700,1.36886865234375,-31.51875114440918,-36.01875305175781,-12.675000190734863
1694682677234865700,1.38886572265625,-30.993751525878906,-36.48750305175781,-13.406250953674316
1694682677254866000,1.408865966796875,-30.281251907348633,-36.50625228881836,-14.793750762939453
1694682677274859000,1.42885888671875,-30.093751907348633,-35.90625,-15.881250381469727
1694682677294864100,1.448864013671875,-29.381250381469727,-36.11250305175781,-17.306251525878906
1694682677314865400,1.468865478515625,-28.087501525878906,-35.47500228881836,-20.08125114440918
1694682677334857500,1.488857421875,-28.106250762939453,-34.38750076293945,-22.481250762939453
1694682677354870300,1.508870361328125,-27.637500762939453,-32.36250305175781,-26.55000114440918
1694682677374876000,1.5288759765625,-26.73750114440918,-30.468751907348633,-29.118751525878906
1694682677394876200,1.548876220703125,-24.693750381469727,-28.068750381469727,-33.056251525878906
1694682677414883000,1.568883056640625,-23.17500114440918,-25.650001525878906,-35.681251525878906
1694682677434876700,1.588876708984375,-21.11250114440918,-21.712501525878906,-38.868751525878906
1694682677454875000,1.608875,-18.84375,-19.012500762939453,-41.08125305175781
1694682677474880500,1.628880615234375,-18.337501525878906,-16.03125,-42.50625228881836
1694682677494873000,1.648873046875,-16.6875,-11.381250381469727,-44.962501525878906
1694682677514871000,1.66887109375,-15.018750190734863,-8.21250057220459,-46.16250228881836
1694682677534877000,1.688876953125,-13.031250953674316,-3.5250000953674316,-46.91250228881836
1694682677554877400,1.70887744140625,-11.887500762939453,-0.4312500059604645,-47.32500076293945
1694682677574867000,1.728866943359375,-9.46875,3.2250001430511475,-47.08125305175781
1694682677594865200,1.748865234375,-7.481250286102295,4.837500095367432,-46.89375305175781
1694682677614871300,1.768871337890625,-5.8125,5.643750190734863,-46.05000305175781
1694682677634860500,1.788860595703125,-4.875,7.593750476837158,-46.38750076293945
1694682677654867000,1.808866943359375,-4.537500381469727,9.225000381469727,-45.525001525878906
1694682677674857000,1.82885693359375,-2.137500047683716,11.02500057220459,-44.92500305175781
1694682677694867700,1.84886767578125,0.26250001788139343,11.137500762939453,-44.587501525878906
1694682677714872600,1.86887255859375,2.4562501907348633,11.137500762939453,-44.26875305175781
1694682677734871800,1.888871826171875,3.4875001907348633,11.850000381469727,-44.53125
1694682677754878500,1.90887841796875,5.0625,11.34375,-43.61250305175781
1694682677774868200,1.9288681640625,5.793750286102295,12.33750057220459,-43.368751525878906
1694682677794878500,1.94887841796875,5.681250095367432,13.575000762939453,-43.63125228881836
1694682677814883000,1.968883056640625,7.575000286102295,13.237500190734863,-42.712501525878906
1694682677834875000,1.988875,9.65625,12.99375057220459,-42.28125
1694682677854871300,2.008871337890625,11.418750762939453,12.393750190734863,-42.1875
1694682677874864400,2.028864501953125,11.53125,11.86875057220459,-41.98125076293945
1694682677894866200,2.0488662109375,11.512500762939453,11.68125057220459,-42.20625305175781
1694682677914856200,2.068856201171875,11.512500762939453,11.850000381469727,-42.28125
1694682677934844400,2.088844482421875,12.562500953674316,11.77500057220459,-42.1875
1694682677954843100,2.108843017578125,13.08750057220459,11.606250762939453,-41.868751525878906
1694682677974838800,2.1288388671875,13.08750057220459,11.15625,-41.98125076293945
1694682677994850800,2.148850830078125,14.737500190734863,9.731250762939453,-42.20625305175781
1694682678014867500,2.168867431640625,15.881250381469727,8.86875057220459,-42.20625305175781
1694682678034876700,2.188876708984375,17.64375114440918,7.368750095367432,-41.92500305175781
1694682678054879200,2.208879150390625,19.200000762939453,5.962500095367432,-41.23125076293945
1694682678074876400,2.22887646484375,20.662500381469727,5.362500190734863,-40.837501525878906
1694682678094881000,2.248881103515625,22.856250762939453,5.043750286102295,-39.60000228881836
1694682678114880000,2.2688798828125,24.412500381469727,5.15625,-39.375
1694682678134875000,2.288875,25.031251907348633,4.893750190734863,-39.375
1694682678154870300,2.308870361328125,25.368751525878906,5.0625,-39.056251525878906
1694682678174877400,2.32887744140625,25.368751525878906,4.631250381469727,-39.07500076293945
1694682678194872000,2.3488720703125,25.05000114440918,4.275000095367432,-39.09375
1694682678214875100,2.368875244140625,24.731250762939453,4.181250095367432,-38.88750076293945
1694682678234866700,2.38886669921875,25.575000762939453,3.843750238418579,-38.681251525878906
1694682678254859500,2.408859619140625,25.575000762939453,4.368750095367432,-38.66250228881836
1694682678274858200,2.428858154296875,24.11250114440918,4.537500381469727,-39.39375305175781
1694682678294864000,2.44886376953125,23.681251525878906,4.706250190734863,-39.60000228881836
1694682678314864400,2.468864501953125,23.381250381469727,5.212500095367432,-39.78750228881836
1694682678334856700,2.488856689453125,23.700000762939453,5.231250286102295,-39.28125
1694682678354869200,2.508869140625,22.96875,6.018750190734863,-39.76875305175781
1694682678374875400,2.52887548828125,23.793750762939453,5.231250286102295,-39.58125305175781
1694682678394875600,2.548875732421875,23.493751525878906,5.231250286102295,-39.1875
1694682678414882800,2.5688828125,24.01875114440918,5.325000286102295,-39.07500076293945
1694682678434884000,2.588884033203125,23.26875114440918,5.662500381469727,-39.88125228881836
1694682678454880500,2.608880615234375,22.762500762939453,5.587500095367432,-39.78750228881836
1694682678474884600,2.628884521484375,23.381250381469727,4.96875,-39.69375228881836
1694682678494876400,2.64887646484375,23.587501525878906,4.518750190734863,-40.01250076293945
1694682678514873300,2.668873291015625,22.950000762939453,3.6937501430511475,-40.23750305175781
1694682678534870800,2.688870849609375,21.993751525878906,3.6000001430511475,-40.76250076293945
1694682678554872300,2.708872314453125,20.73750114440918,1.2750000953674316,-41.15625
1694682678574861600,2.728861572265625,20.71875,0.01875000074505806,-42.09375
1694682678594861300,2.748861328125,19.05000114440918,-0.8812500238418579,-42.45000076293945
1694682678614858000,2.76885791015625,18.30000114440918,-1.8000000715255737,-43.29375076293945
1694682678634851600,2.7888515625,17.775001525878906,-3.9937500953674316,-42.65625
1694682678654849500,2.808849609375,18.9375,-4.612500190734863,-42.35625076293945
1694682678674844200,2.82884423828125,18.825000762939453,-4.59375,-42.150001525878906
1694682678694859300,2.848859375,19.443750381469727,-4.706250190734863,-42.75
1694682678714867200,2.8688671875,20.793750762939453,-4.181250095367432,-43.21875
1694682678734857700,2.888857666015625,20.681251525878906,-5.043750286102295,-42.13125228881836
1694682678754816300,2.908816162109375,19.443750381469727,-5.493750095367432,-42.46875
1694682678774833000,2.9288330078125,19.443750381469727,-6.731250286102295,-42.20625305175781
1694682678794854100,2.948854248046875,19.42500114440918,-7.537500381469727,-42.11250305175781
1694682678814859300,2.968859375,20.381250381469727,-8.737500190734863,-41.23125076293945
1694682678834859800,2.98885986328125,20.587501525878906,-9.1875,-41.25
1694682678854821600,3.008821533203125,21.225000381469727,-10.575000762939453,-40.06875228881836
1694682678874821600,3.028821533203125,20.475000381469727,-11.381250381469727,-40.10625076293945
1694682678894829800,3.048829833984375,21.20625114440918,-12.52500057220459,-40.125
1694682678914833000,3.0688330078125,19.743751525878906,-13.256250381469727,-40.25625228881836
1694682678934832400,3.088832275390625,20.681251525878906,-13.856250762939453,-39.65625
1694682678954796800,3.108796875,20.887500762939453,-14.906250953674316,-39.28125
1694682678974807000,3.12880712890625,20.793750762939453,-15.787500381469727,-39.11250305175781
1694682678994830600,3.14883056640625,21,-16.387500762939453,-38.41875076293945
1694682679014856400,3.1688564453125,20.793750762939453,-16.575000762939453,-38.73750305175781
1694682679034865200,3.188865234375,21.525001525878906,-16.650001525878906,-38.41875076293945
1694682679054832400,3.208832275390625,20.90625,-16.743751525878906,-38.23125076293945
1694682679074843600,3.22884375,21.84375,-16.462501525878906,-38.306251525878906
1694682679094859500,3.248859619140625,22.256250381469727,-15.393750190734863,-37.875
1694682679114867500,3.268867431640625,23.512500762939453,-14.49375057220459,-37.61250305175781
1694682679134869000,3.288868896484375,23.625,-14.137500762939453,-37.70625305175781
1694682679154831400,3.308831298828125,23.306251525878906,-14.231250762939453,-37.72500228881836
1694682679174843400,3.328843505859375,23.212501525878906,-14.418750762939453,-37.72500228881836
1694682679194849300,3.348849365234375,22.6875,-15.468750953674316,-37.25625228881836
1694682679214862800,3.36886279296875,21.95625114440918,-14.943750381469727,-37.462501525878906
1694682679234859500,3.388859619140625,22.068750381469727,-15.375000953674316,-37.06875228881836
1694682679254821400,3.4088212890625,22.368751525878906,-15.656250953674316,-37.368751525878906
1694682679274818800,3.42881884765625,21.431251525878906,-15.675000190734863,-37.98750305175781
1694682679294836700,3.448836669921875,21.337501525878906,-16.106250762939453,-37.40625
1694682679314853400,3.468853271484375,21.131250381469727,-15.825000762939453,-37.38750076293945
1694682679334852000,3.48885205078125,21.11250114440918,-16.368751525878906,-37.3125
1694682679354816500,3.50881640625,21.337501525878906,-16.443750381469727,-37.20000076293945
1694682679374837500,3.52883740234375,21.731250762939453,-16.98750114440918,-37.42500305175781
1694682679394850000,3.54885009765625,21.225000381469727,-16.631250381469727,-37.40625
1694682679414856200,3.568856201171875,21.01875114440918,-16.61250114440918,-37.01250076293945
1694682679434859800,3.58885986328125,21.431251525878906,-16.61250114440918,-37.10625076293945
1694682679454825200,3.6088251953125,21.431251525878906,-16.631250381469727,-37.51875305175781
1694682679474839000,3.628839111328125,22.462501525878906,-16.368751525878906,-37.6875
1694682679494846700,3.6488466796875,22.368751525878906,-15.99375057220459,-37.275001525878906
1694682679514855400,3.66885546875,22.98750114440918,-15.99375057220459,-37.57500076293945
1694682679534858000,3.68885791015625,23.006250381469727,-15.731250762939453,-37.25625228881836
1694682679554870500,3.70887060546875,22.275001525878906,-15.656250953674316,-37.368751525878906
1694682679574864100,3.728864013671875,22.05000114440918,-16.181251525878906,-37.78125
1694682679594865700,3.74886572265625,22.368751525878906,-16.106250762939453,-37.78125
1694682679614862300,3.7688623046875,21.95625114440918,-16.012500762939453,-37.6875
1694682679634857000,3.78885693359375,22.462501525878906,-15.937500953674316,-37.875
1694682679654827800,3.808827880859375,22.368751525878906,-15.750000953674316,-38.08125305175781
1694682679674828300,3.828828369140625,21.731250762939453,-15.768750190734863,-38.28750228881836
1694682679694848300,3.84884814453125,22.256250381469727,-15.581250190734863,-38.28750228881836
1694682679714860300,3.8688603515625,20.793750762939453,-14.981250762939453,-38.681251525878906
1694682679734854000,3.88885400390625,21.11250114440918,-15.24375057220459,-38.79375076293945
1694682679754814700,3.908814697265625,21.525001525878906,-15.693750381469727,-38.90625
1694682679774833000,3.9288330078125,20.681251525878906,-15.52500057220459,-39
1694682679794855200,3.948855224609375,20.887500762939453,-15.61875057220459,-39
1694682679814861000,3.968861083984375,20.587501525878906,-15.356250762939453,-39.20625305175781
1694682679834869000,3.988868896484375,20.36250114440918,-15.862500190734863,-38.92500305175781
1694682679854829000,4.0088291015625,20.475000381469727,-15.71250057220459,-39.41250228881836
1694682679874843000,4.0288427734375,20.475000381469727,-15.52500057220459,-39.41250228881836
1694682679894846500,4.048846435546875,20.681251525878906,-15.693750381469727,-39.31875228881836
1694682679914848500,4.0688486328125,20.568750381469727,-16.33125114440918,-39.431251525878906
1694682679934854700,4.088854736328125,20.17500114440918,-16.3125,-38.83125305175781
1694682679954813200,4.108813232421875,20.287500381469727,-16.481250762939453,-38.4375
1694682679974823700,4.12882373046875,20.0625,-16.668750762939453,-39.056251525878906
1694682679994841600,4.148841552734375,21,-16.668750762939453,-38.83125305175781
1694682680014863000,4.168863037109375,20.793750762939453,-17.006250381469727,-38.23125076293945
1694682680034868000,4.188867919921875,21.20625114440918,-17.71875,-38.15625
1694682680054833000,4.2088330078125,21.11250114440918,-17.100000381469727,-38.34375
1694682680074842600,4.228842529296875,20.90625,-17.36250114440918,-38.25
1694682680094857700,4.248857666015625,21,-17.4375,-38.04375076293945
1694682680114865400,4.268865478515625,21.318750381469727,-17.4375,-38.04375076293945
1694682680134868500,4.288868408203125,21.20625114440918,-17.625,-38.25
1694682680154823700,4.30882373046875,21.84375,-17.700000762939453,-37.837501525878906
1694682680174837200,4.328837158203125,21.731250762939453,-17.26875114440918,-38.025001525878906
1694682680194844700,4.3488447265625,21.637500762939453,-16.743751525878906,-38.212501525878906
1694682680214850300,4.368850341796875,22.256250381469727,-16.556251525878906,-38.19375228881836
1694682680234850300,4.388850341796875,22.668750762939453,-16.818750381469727,-38.00625228881836
1694682680254823200,4.4088232421875,22.668750762939453,-16.275001525878906,-37.89375305175781
1694682680274820900,4.42882080078125,23.306251525878906,-16.106250762939453,-38.0625
1694682680294839000,4.448839111328125,23.193750381469727,-15.937500953674316,-38.0625
1694682680314856400,4.4688564453125,23.100000381469727,-15.99375057220459,-37.462501525878906
1694682680334854400,4.4888544921875,23.006250381469727,-16.087501525878906,-37.275001525878906
1694682680354818300,4.508818359375,23.418750762939453,-16.256250381469727,-37.368751525878906
1694682680374838800,4.5288388671875,23.100000381469727,-15.99375057220459,-37.275001525878906
1694682680394851000,4.54885107421875,23.625,-16.162500381469727,-37.25625228881836
1694682680414856700,4.568856689453125,23.943750381469727,-16.256250381469727,-36.95625305175781
1694682680434861000,4.588861083984375,23.512500762939453,-16.087501525878906,-37.25625228881836
1694682680454818000,4.608818115234375,23.92500114440918,-16.087501525878906,-37.368751525878906
1694682680474832600,4.62883251953125,23.512500762939453,-15.825000762939453,-37.25625228881836
1694682680494850800,4.648850830078125,23.418750762939453,-15.656250953674316,-37.556251525878906
1694682680514858800,4.668858642578125,22.78125,-15.206250190734863,-37.556251525878906
1694682680534860500,4.688860595703125,23.212501525878906,-15.281250953674316,-37.35000228881836
1694682680554871800,4.708871826171875,22.462501525878906,-15.393750190734863,-37.76250076293945
1694682680574865200,4.728865234375,23.193750381469727,-15.375000953674316,-37.556251525878906
1694682680594866700,4.74886669921875,24.037500381469727,-15.281250953674316,-37.63125228881836
1694682680614863000,4.768863037109375,24.243751525878906,-15.281250953674316,-37.33125305175781
1694682680634856000,4.78885595703125,24.037500381469727,-15.112500190734863,-37.53750228881836
1694682680654827000,4.808826904296875,24.037500381469727,-15.731250762939453,-37.650001525878906
1694682680674827500,4.82882763671875,23.92500114440918,-15.037500381469727,-38.04375076293945
1694682680694847700,4.84884765625,23.512500762939453,-15.393750190734863,-38.04375076293945
1694682680714859800,4.86885986328125,23.400001525878906,-15.131250381469727,-38.15625
1694682680734853600,4.888853515625,23.512500762939453,-15.037500381469727,-38.23125076293945
1694682680754814500,4.908814453125,22.78125,-15.131250381469727,-38.45625305175781
1694682680774832600,4.92883251953125,23.193750381469727,-15.037500381469727,-38.25
1694682680794855200,4.948855224609375,23.193750381469727,-15.393750190734863,-38.0625
1694682680814861800,4.96886181640625,23.512500762939453,-15.225000381469727,-38.15625
1694682680834861800,4.98886181640625,23.08125114440918,-15.768750190734863,-38.36250305175781
1694682680854816000,5.00881591796875,22.875,-15.05625057220459,-38.34375
1694682680874820000,5.028820068359375,22.668750762939453,-15.506250381469727,-38.47500228881836
1694682680894829000,5.0488291015625,22.256250381469727,-14.96250057220459,-38.56875228881836
1694682680914844200,5.06884423828125,22.368751525878906,-15.05625057220459,-38.45625305175781
1694682680934841900,5.088841796875,23.287500381469727,-15.843750953674316,-38.26875305175781
1694682680954809600,5.1088095703125,22.462501525878906,-15.412500381469727,-38.868751525878906
1694682680974823700,5.12882373046875,22.98750114440918,-15.675000190734863,-38.26875305175781
1694682680994843000,5.1488427734375,22.575000762939453,-15.393750190734863,-38.36250305175781
1694682681014865000,5.168864990234375,23.306251525878906,-15.843750953674316,-38.0625
1694682681034870800,5.188870849609375,23.400001525878906,-15.825000762939453,-37.85625076293945
1694682681054835500,5.20883544921875,23.193750381469727,-15.843750953674316,-38.17500305175781
1694682681074845000,5.228844970703125,23.418750762939453,-15.562500953674316,-37.650001525878906
1694682681094859500,5.248859619140625,23.418750762939453,-16.275001525878906,-37.462501525878906
1694682681114866700,5.26886669921875,23.625,-16.275001525878906,-37.57500076293945
1694682681134860000,5.288860107421875,23.418750762939453,-16.875,-37.181251525878906
1694682681154817300,5.3088173828125,23.193750381469727,-16.443750381469727,-37.38750076293945
1694682681174832600,5.32883251953125,23.943750381469727,-16.33125114440918,-36.76875305175781
1694682681194833700,5.348833740234375,24.131250381469727,-16.350000381469727,-37.25625228881836
1694682681214830800,5.368830810546875,24.243751525878906,-16.162500381469727,-36.95625305175781
1694682681234836500,5.38883642578125,23.83125114440918,-15.543750762939453,-37.23750305175781
1694682681254859800,5.40885986328125,24.356250762939453,-15.637500762939453,-37.53750228881836
1694682681274853600,5.428853515625,24.656251907348633,-15.281250953674316,-37.53750228881836
1694682681294866000,5.448865966796875,24.562501907348633,-14.831250190734863,-36.806251525878906
1694682681314876200,5.468876220703125,24.975000381469727,-15.000000953674316,-36.91875076293945
1694682681334868000,5.488867919921875,24.468751907348633,-15.018750190734863,-37.01250076293945
1694682681354827000,5.508826904296875,24.356250762939453,-14.831250190734863,-37.21875
1694682681374832000,5.52883203125,24.468751907348633,-14.831250190734863,-36.806251525878906
1694682681394844400,5.548844482421875,24.356250762939453,-15.281250953674316,-37.03125
1694682681414850300,5.568850341796875,24.468751907348633,-15.187500953674316,-37.01250076293945
1694682681434855000,5.58885498046875,24.975000381469727,-15.262500762939453,-36.91875076293945
1694682681454812700,5.608812744140625,25.087501525878906,-14.737500190734863,-36.50625228881836
1694682681474818800,5.62881884765625,24.67500114440918,-15.000000953674316,-36.806251525878906
1694682681494845200,5.64884521484375,24.468751907348633,-14.831250190734863,-37.01250076293945
1694682681514847500,5.668847412109375,24.468751907348633,-14.756250381469727,-37.21875
1694682681534844700,5.6888447265625,24.150001525878906,-14.30625057220459,-37.51875305175781
1694682681554860500,5.708860595703125,24.150001525878906,-14.58750057220459,-37.40625
1694682681574857200,5.728857177734375,24.131250381469727,-14.850000381469727,-37.72500228881836
1694682681594869200,5.748869140625,24.243751525878906,-14.943750381469727,-37.61250305175781
1694682681614866700,5.76886669921875,24.76875114440918,-14.662500381469727,-37.3125
1694682681634867500,5.788867431640625,24.056251525878906,-13.856250762939453,-37.181251525878906
1694682681654836000,5.8088359375,24.375001907348633,-14.02500057220459,-36.69375228881836
1694682681674845700,5.828845703125,24.468751907348633,-14.30625057220459,-37.59375
1694682681694861300,5.848861328125,24.150001525878906,-13.856250762939453,-37.087501525878906
1694682681714869200,5.868869140625,24.787500381469727,-14.02500057220459,-36.993751525878906
1694682681734860000,5.888860107421875,24.881250381469727,-13.668750762939453,-36.86250305175781
1694682681754818300,5.908818359375,25.293750762939453,-13.856250762939453,-36.97500228881836
1694682681774834700,5.928834716796875,25.406251907348633,-14.193750381469727,-36.67500305175781
1694682681794855700,5.948855712890625,24.993751525878906,-14.362500190734863,-36.58125305175781
1694682681814861000,5.968861083984375,24.468751907348633,-14.287500381469727,-36.48750305175781
1694682681834861800,5.98886181640625,24.975000381469727,-14.662500381469727,-37.20000076293945
1694682681854815500,6.0088154296875,24.468751907348633,-14.568750381469727,-37.10625076293945
1694682681874817800,6.02881787109375,24.150001525878906,-14.756250381469727,-37.125
1694682681894826800,6.04882666015625,23.83125114440918,-14.30625057220459,-37.21875
1694682681914841900,6.068841796875,24.356250762939453,-14.756250381469727,-37.3125
1694682681934838500,6.088838623046875,24.881250381469727,-14.831250190734863,-37.10625076293945
1694682681954808800,6.108808837890625,23.943750381469727,-15.187500953674316,-36.63750076293945
1694682681974823200,6.1288232421875,24.468751907348633,-15.187500953674316,-37.01250076293945
1694682681994842400,6.14884228515625,24.150001525878906,-15.468750953674316,-37.14375305175781
1694682682014864600,6.16886474609375,24.262500762939453,-14.906250953674316,-36.712501525878906
1694682682034884600,6.188884521484375,24.037500381469727,-15.375000953674316,-37.44375228881836
1694682682054846000,6.208845947265625,24.356250762939453,-15.262500762939453,-36.9375
1694682682074852600,6.2288525390625,23.943750381469727,-15.018750190734863,-36.82500076293945
1694682682094853600,6.248853515625,24.562501907348633,-15.093750953674316,-37.3125
1694682682114861600,6.268861572265625,24.562501907348633,-15.093750953674316,-37.01250076293945
1694682682134857000,6.28885693359375,24.975000381469727,-15.187500953674316,-37.125
1694682682154814700,6.308814697265625,24.67500114440918,-15.187500953674316,-37.01250076293945
1694682682174830600,6.32883056640625,25.181251525878906,-15.000000953674316,-36.806251525878906
1694682682194856200,6.348856201171875,25.181251525878906,-14.568750381469727,-36.88125228881836
1694682682214860000,6.368860107421875,25.087501525878906,-14.981250762939453,-36.39375305175781
1694682682234859000,6.38885888671875,24.562501907348633,-14.643750190734863,-36.69375228881836
1694682682254814500,6.408814453125,24.562501907348633,-14.812500953674316,-36.41250228881836
1694682682274814200,6.428814208984375,24.881250381469727,-14.568750381469727,-36.900001525878906
1694682682294833200,6.448833251953125,25.087501525878906,-15.168750762939453,-36.618751525878906
1694682682314852000,6.46885205078125,24.262500762939453,-14.568750381469727,-36.712501525878906
1694682682334851300,6.488851318359375,24.056251525878906,-14.756250381469727,-37.125
1694682682354816300,6.508816162109375,24.262500762939453,-14.643750190734863,-36.806251525878906
1694682682374826200,6.528826171875,24.243751525878906,-15.187500953674316,-37.23750305175781
1694682682394841900,6.548841796875,24.67500114440918,-14.568750381469727,-37.10625076293945
1694682682414850300,6.568850341796875,24.150001525878906,-14.756250381469727,-37.3125
1694682682434856400,6.5888564453125,24.056251525878906,-14.756250381469727,-37.125
1694682682454816300,6.608816162109375,23.512500762939453,-14.58750057220459,-37.42500305175781
1694682682474833200,6.628833251953125,24.056251525878906,-15.000000953674316,-36.525001525878906
1694682682494849500,6.648849609375,24.356250762939453,-15.018750190734863,-36.91875076293945
1694682682514858500,6.6688583984375,23.83125114440918,-14.756250381469727,-37.3125
1694682682534853400,6.688853271484375,24.356250762939453,-14.737500190734863,-36.91875076293945
1694682682554866700,6.70886669921875,24.243751525878906,-14.831250190734863,-37.21875
1694682682574861300,6.728861328125,24.037500381469727,-14.925000190734863,-37.21875
1694682682594865200,6.748865234375,23.73750114440918,-14.756250381469727,-37.42500305175781
1694682682614862800,6.76886279296875,24.356250762939453,-14.831250190734863,-37.01250076293945
1694682682634856700,6.788856689453125,24.056251525878906,-14.925000190734863,-36.91875076293945
1694682682654827800,6.808827880859375,24.262500762939453,-15.093750953674316,-36.618751525878906
1694682682674840000,6.828840087890625,24.243751525878906,-15.468750953674316,-37.125
1694682682694857200,6.848857177734375,24.375001907348633,-14.737500190734863,-36.41250228881836
1694682682714866700,6.86886669921875,24.150001525878906,-15.187500953674316,-36.82500076293945
1694682682734858500,6.8888583984375,24.262500762939453,-15.000000953674316,-36.82500076293945
1694682682754817500,6.908817626953125,24.150001525878906,-15.018750190734863,-36.91875076293945
1694682682774834700,6.928834716796875,24.356250762939453,-15.356250762939453,-36.525001525878906
1694682682794837000,6.9488369140625,24.67500114440918,-15.018750190734863,-37.01250076293945
1694682682814850000,6.96885009765625,24.993751525878906,-15.168750762939453,-36.31875228881836
1694682682834852600,6.9888525390625,24.468751907348633,-15.075000762939453,-36.525001525878906
1694682682854809300,7.008809326171875,24.468751907348633,-15.187500953674316,-36.618751525878906
1694682682874813200,7.028813232421875,24.881250381469727,-15.075000762939453,-36.50625228881836
1694682682894824000,7.048823974609375,24.67500114440918,-15.450000762939453,-36.82500076293945
1694682682914841000,7.068841064453125,24.787500381469727,-15.075000762939453,-36.41250228881836
1694682682934838300,7.08883837890625,24.356250762939453,-15.000000953674316,-36.82500076293945
1694682682954809300,7.108809326171875,24.243751525878906,-14.643750190734863,-37.01250076293945
1694682682974824200,7.12882421875,24.993751525878906,-14.906250953674316,-36.60000228881836
1694682682994843600,7.14884375,24.67500114440918,-15.450000762939453,-36.9375
1694682683014865700,7.16886572265625,23.943750381469727,-14.737500190734863,-36.91875076293945
1694682683034871600,7.18887158203125,23.943750381469727,-14.737500190734863,-36.712501525878906
1694682683054836200,7.208836181640625,24.056251525878906,-15.018750190734863,-36.91875076293945
1694682683074845400,7.228845458984375,24.468751907348633,-15.168750762939453,-36.525001525878906
1694682683094860300,7.2488603515625,24.375001907348633,-14.812500953674316,-36.41250228881836
1694682683114867200,7.2688671875,24.881250381469727,-15.093750953674316,-36.618751525878906
1694682683134861800,7.28886181640625,23.943750381469727,-15.356250762939453,-36.525001525878906
1694682683154818600,7.308818603515625,24.562501907348633,-15.187500953674316,-36.82500076293945
1694682683174822100,7.328822265625,24.993751525878906,-15.168750762939453,-36.41250228881836
1694682683194826000,7.348825927734375,24.881250381469727,-15.356250762939453,-36.525001525878906
1694682683214836500,7.36883642578125,25.087501525878906,-15.168750762939453,-36.618751525878906
1694682683234842400,7.38884228515625,24.562501907348633,-15.356250762939453,-36.712501525878906
1694682683254863400,7.40886328125,24.468751907348633,-15.075000762939453,-36.31875228881836
1694682683274856200,7.428856201171875,24.993751525878906,-15.262500762939453,-36.41250228881836
1694682683294872800,7.448872802734375,24.468751907348633,-15.093750953674316,-36.91875076293945
1694682683314881000,7.468881103515625,24.562501907348633,-15.093750953674316,-37.01250076293945
1694682683334871600,7.48887158203125,24.056251525878906,-15.093750953674316,-36.82500076293945
1694682683354829300,7.508829345703125,24.262500762939453,-14.906250953674316,-36.712501525878906
1694682683374844700,7.5288447265625,24.468751907348633,-15.543750762939453,-36.9375
1694682683394853600,7.548853515625,23.850000381469727,-14.812500953674316,-36.525001525878906
1694682683414856700,7.568856689453125,24.056251525878906,-15.075000762939453,-36.41250228881836
1694682683434860500,7.588860595703125,23.83125114440918,-14.925000190734863,-36.82500076293945
1694682683454868500,7.608868408203125,24.468751907348633,-14.812500953674316,-36.712501525878906
1694682683474874000,7.6288740234375,23.943750381469727,-15.281250953674316,-37.03125
1694682683494878200,7.648878173828125,23.625,-15.093750953674316,-37.03125
1694682683514877000,7.668876953125,24.356250762939453,-15.262500762939453,-36.82500076293945
1694682683534864400,7.688864501953125,24.67500114440918,-15.262500762939453,-36.91875076293945
1694682683554872000,7.7088720703125,24.262500762939453,-14.737500190734863,-36.91875076293945
1694682683574868500,7.728868408203125,24.356250762939453,-15.000000953674316,-36.712501525878906
1694682683594869800,7.748869873046875,24.243751525878906,-15.262500762939453,-36.82500076293945
1694682683614864000,7.76886376953125,24.150001525878906,-14.906250953674316,-36.712501525878906
1694682683634857700,7.788857666015625,24.562501907348633,-14.906250953674316,-36.41250228881836
1694682683654827300,7.8088271484375,24.67500114440918,-15.075000762939453,-36.31875228881836
1694682683674838300,7.82883837890625,24.356250762939453,-15.093750953674316,-36.91875076293945
1694682683694855200,7.848855224609375,24.468751907348633,-15.262500762939453,-36.41250228881836
1694682683714864400,7.868864501953125,24.562501907348633,-15.168750762939453,-36.41250228881836
1694682683734856400,7.8888564453125,24.67500114440918,-15.075000762939453,-36.41250228881836
1694682683754815700,7.908815673828125,24.67500114440918,-15.356250762939453,-36.525001525878906
1694682683774833000,7.9288330078125,24.356250762939453,-15.71250057220459,-36.84375
1694682683794837200,7.948837158203125,24.468751907348633,-15.61875057220459,-36.63750076293945
1694682683814861300,7.968861328125,24.975000381469727,-15.61875057220459,-36.9375
1694682683834861000,7.988861083984375,24.562501907348633,-15.71250057220459,-36.73125076293945
1694682683854816500,8.00881640625,25.181251525878906,-15.787500381469727,-36.41250228881836
1694682683874818600,8.028818603515624,24.975000381469727,-15.450000762939453,-36.91875076293945
1694682683894828300,8.048828369140624,24.243751525878906,-15.52500057220459,-36.73125076293945
1694682683914854700,8.068854736328126,24.356250762939453,-15.71250057220459,-37.03125
1694682683934848000,8.088847900390626,24.993751525878906,-15.52500057220459,-36.41250228881836
1694682683954816000,8.10881591796875,25.087501525878906,-15.52500057220459,-36.525001525878906
1694682683974828000,8.128828125,23.943750381469727,-15.187500953674316,-36.82500076293945
1694682683994845700,8.148845703125,24.881250381469727,-15.52500057220459,-36.712501525878906
1694682684014866700,8.16886669921875,24.356250762939453,-15.075000762939453,-36.525001525878906
1694682684034867000,8.188866943359375,24.881250381469727,-15.168750762939453,-36.41250228881836
1694682684054831900,8.208831787109375,24.150001525878906,-15.093750953674316,-36.712501525878906
1694682684074841900,8.228841796875,24.150001525878906,-15.637500762939453,-36.9375
1694682684094857200,8.248857177734376,24.056251525878906,-15.450000762939453,-36.82500076293945
1694682684114858000,8.26885791015625,23.943750381469727,-14.925000190734863,-36.82500076293945
1694682684134857200,8.288857177734375,23.83125114440918,-14.906250953674316,-36.712501525878906
1694682684154824200,8.30882421875,24.262500762939453,-14.737500190734863,-36.806251525878906
1694682684174831400,8.328831298828124,24.356250762939453,-15.187500953674316,-36.91875076293945
1694682684194833200,8.348833251953126,24.262500762939453,-14.906250953674316,-36.712501525878906
1694682684214844000,8.368843994140626,24.150001525878906,-15.093750953674316,-36.712501525878906
1694682684234847000,8.388846923828124,24.356250762939453,-15.093750953674316,-36.82500076293945
1694682684254805800,8.4088056640625,23.83125114440918,-15.093750953674316,-37.03125
1694682684274810400,8.428810302734375,24.056251525878906,-15.093750953674316,-36.712501525878906
1694682684294827500,8.44882763671875,24.150001525878906,-15.187500953674316,-37.03125
1694682684314848800,8.468848876953125,24.056251525878906,-15.262500762939453,-36.82500076293945
1694682684334849800,8.488849853515624,23.83125114440918,-15.187500953674316,-36.525001525878906
1694682684354816000,8.50881591796875,24.056251525878906,-15.543750762939453,-36.84375
1694682684374826800,8.52882666015625,23.73750114440918,-15.093750953674316,-36.82500076293945
1694682684394843000,8.5488427734375,24.262500762939453,-15.43125057220459,-36.63750076293945
1694682684414862300,8.5688623046875,23.943750381469727,-15.262500762939453,-36.525001525878906
1694682684434870500,8.58887060546875,24.468751907348633,-15.168750762939453,-36.11250305175781
1694682684454822100,8.608822265625,23.943750381469727,-15.093750953674316,-36.712501525878906
1694682684474832600,8.62883251953125,23.943750381469727,-15.000000953674316,-36.712501525878906
1694682684494848800,8.648848876953124,24.468751907348633,-15.43125057220459,-36.525001525878906
1694682684514868500,8.668868408203124,23.73750114440918,-15.093750953674316,-36.82500076293945
1694682684534860300,8.6888603515625,23.943750381469727,-15.018750190734863,-37.03125
1694682684554820900,8.70882080078125,24.150001525878906,-15.356250762939453,-37.03125
1694682684574825500,8.728825439453125,23.943750381469727,-14.925000190734863,-36.82500076293945
1694682684594837200,8.748837158203125,24.356250762939453,-15.168750762939453,-36.525001525878906
1694682684614850300,8.768850341796876,24.562501907348633,-15.187500953674316,-36.712501525878906
1694682684634856400,8.7888564453125,24.356250762939453,-15.093750953674316,-36.91875076293945
1694682684654829300,8.808829345703124,24.468751907348633,-15.375000953674316,-37.125
1694682684674842600,8.828842529296875,24.356250762939453,-15.093750953674316,-36.82500076293945
1694682684694860300,8.8488603515625,24.356250762939453,-15.075000762939453,-36.525001525878906
1694682684714870000,8.8688701171875,24.562501907348633,-15.375000953674316,-37.125
1694682684734872800,8.888872802734374,24.150001525878906,-15.093750953674316,-36.91875076293945
1694682684754830300,8.908830322265626,24.056251525878906,-15.187500953674316,-36.82500076293945
1694682684774837500,8.92883740234375,23.943750381469727,-15.262500762939453,-36.9375
1694682684794849000,8.94884912109375,23.83125114440918,-14.925000190734863,-37.33125305175781
1694682684814862800,8.96886279296875,24.056251525878906,-15.262500762939453,-36.431251525878906
1694682684834862300,8.9888623046875,24.468751907348633,-15.356250762939453,-36.9375
1694682684854815700,9.008815673828124,24.562501907348633,-15.61875057220459,-36.63750076293945
1694682684874817300,9.0288173828125,24.262500762939453,-15.000000953674316,-36.712501525878906
1694682684894826200,9.048826171875,23.73750114440918,-15.187500953674316,-36.63750076293945
1694682684914834200,9.068834228515625,23.64375114440918,-15.43125057220459,-36.337501525878906
1694682684934833200,9.088833251953124,24.375001907348633,-15.168750762939453,-36.41250228881836
1694682684954805200,9.10880517578125,24.468751907348633,-15.356250762939453,-36.712501525878906
1694682684974820900,9.12882080078125,23.64375114440918,-14.737500190734863,-36.41250228881836
1694682684994840800,9.1488408203125,24.150001525878906,-15.018750190734863,-37.125
1694682685014864000,9.16886376953125,24.056251525878906,-15.093750953674316,-36.618751525878906
1694682685034870300,9.188870361328124,24.243751525878906,-15.018750190734863,-37.3125
1694682685054824000,9.208823974609375,23.83125114440918,-15.187500953674316,-36.9375
1694682685074836200,9.228836181640625,23.943750381469727,-14.906250953674316,-36.618751525878906
1694682685094853600,9.248853515625,24.468751907348633,-15.262500762939453,-37.03125
1694682685114856200,9.268856201171875,24.243751525878906,-15.112500190734863,-37.53750228881836
1694682685134860800,9.28886083984375,24.468751907348633,-15.356250762939453,-36.31875228881836
1694682685154829600,9.30882958984375,23.943750381469727,-15.187500953674316,-37.125
1694682685174823700,9.32882373046875,24.468751907348633,-15.375000953674316,-37.23750305175781
1694682685194827800,9.348827880859375,24.562501907348633,-15.61875057220459,-36.525001525878906
1694682685214838500,9.368838623046875,24.468751907348633,-15.262500762939453,-36.712501525878906
1694682685234844400,9.388844482421876,24.562501907348633,-15.187500953674316,-36.82500076293945
1694682685254807300,9.408807373046875,24.562501907348633,-15.356250762939453,-36.712501525878906
1694682685274817300,9.4288173828125,24.262500762939453,-15.000000953674316,-36.712501525878906
1694682685294844700,9.4488447265625,24.787500381469727,-15.61875057220459,-36.431251525878906
1694682685314862000,9.468862060546876,24.76875114440918,-15.356250762939453,-36.82500076293945
1694682685334870800,9.488870849609375,24.975000381469727,-15.187500953674316,-36.91875076293945
1694682685354831400,9.508831298828126,24.243751525878906,-15.187500953674316,-36.91875076293945
1694682685374837200,9.528837158203125,24.787500381469727,-15.33750057220459,-36.31875228881836
1694682685394849500,9.548849609375,24.562501907348633,-15.093750953674316,-36.82500076293945
1694682685414866200,9.5688662109375,24.356250762939453,-15.356250762939453,-36.82500076293945
1694682685434870000,9.5888701171875,24.243751525878906,-15.187500953674316,-37.03125
1694682685454820600,9.608820556640625,24.468751907348633,-15.187500953674316,-36.91875076293945
1694682685474830600,9.62883056640625,24.150001525878906,-15.356250762939453,-36.9375
1694682685494853000,9.64885302734375,23.83125114440918,-15.206250190734863,-37.33125305175781
1694682685514852400,9.668852294921875,24.67500114440918,-15.000000953674316,-36.618751525878906
1694682685534847500,9.688847412109375,24.562501907348633,-15.262500762939453,-36.712501525878906
1694682685554861800,9.70886181640625,24.468751907348633,-15.187500953674316,-37.125
1694682685574860800,9.72886083984375,24.150001525878906,-15.093750953674316,-37.01250076293945
1694682685594853400,9.748853271484375,24.787500381469727,-15.168750762939453,-36.618751525878906
1694682685614861000,9.768861083984374,24.243751525878906,-15.543750762939453,-37.03125
1694682685634863000,9.788863037109374,24.76875114440918,-15.450000762939453,-37.03125
1694682685654832600,9.80883251953125,24.76875114440918,-15.61875057220459,-36.73125076293945
1694682685674843600,9.82884375,24.787500381469727,-15.43125057220459,-36.618751525878906
1694682685694860000,9.848860107421874,24.562501907348633,-15.262500762939453,-36.525001525878906
1694682685714868700,9.86886865234375,24.262500762939453,-15.356250762939453,-36.73125076293945
1694682685734871000,9.88887109375,24.150001525878906,-15.450000762939453,-36.9375
1694682685754820000,9.908820068359375,24.356250762939453,-15.71250057220459,-36.525001525878906
1694682685774828500,9.92882861328125,24.562501907348633,-15.71250057220459,-36.63750076293945
1694682685794846500,9.948846435546875,24.056251525878906,-15.356250762939453,-36.431251525878906
1694682685814850300,9.968850341796875,24.67500114440918,-15.262500762939453,-36.618751525878906
1694682685834852600,9.9888525390625,24.150001525878906,-15.52500057220459,-36.73125076293945
1694682685854809000,10.00880908203125,24.168750762939453,-15.168750762939453,-36.31875228881836
1694682685874812400,10.0288125,24.356250762939453,-15.356250762939453,-36.82500076293945
1694682685894835700,10.048835693359376,24.468751907348633,-15.187500953674316,-37.01250076293945
1694682685914837800,10.068837646484376,24.67500114440918,-15.187500953674316,-37.125
1694682685934843100,10.088843017578125,24.975000381469727,-15.262500762939453,-36.712501525878906
1694682685954812700,10.108812744140625,23.83125114440918,-15.018750190734863,-37.03125
1694682685974837500,10.12883740234375,24.787500381469727,-15.187500953674316,-36.712501525878906
1694682685994853400,10.148853271484375,24.356250762939453,-15.093750953674316,-36.91875076293945
1694682686014872800,10.168872802734375,24.562501907348633,-15.093750953674316,-36.618751525878906
1694682686034875400,10.18887548828125,24.468751907348633,-15.52500057220459,-36.63750076293945
1694682686054826800,10.20882666015625,24.150001525878906,-15.262500762939453,-36.73125076293945
1694682686074837500,10.22883740234375,24.67500114440918,-15.187500953674316,-36.91875076293945
1694682686094854000,10.24885400390625,24.468751907348633,-15.61875057220459,-36.73125076293945
1694682686114856000,10.26885595703125,24.562501907348633,-15.637500762939453,-36.9375
1694682686134860000,10.288860107421876,24.150001525878906,-15.262500762939453,-36.9375
1694682686154821000,10.308821044921874,24.562501907348633,-15.450000762939453,-37.03125
1694682686174817000,10.328817138671875,24.76875114440918,-15.187500953674316,-37.01250076293945
1694682686194822100,10.348822265625,24.562501907348633,-15.262500762939453,-37.01250076293945
1694682686214833700,10.368833740234376,24.787500381469727,-15.168750762939453,-36.31875228881836
1694682686234839000,10.388839111328124,24.468751907348633,-15.543750762939453,-36.82500076293945
1694682686254805000,10.408804931640624,23.943750381469727,-15.187500953674316,-36.525001525878906
1694682686274816000,10.42881591796875,24.243751525878906,-15.093750953674316,-37.125
1694682686294844000,10.448843994140624,24.468751907348633,-15.093750953674316,-36.91875076293945
1694682686314861800,10.46886181640625,24.562501907348633,-15.52500057220459,-36.73125076293945
1694682686334870800,10.488870849609375,23.512500762939453,-14.925000190734863,-37.23750305175781
1694682686354831600,10.50883154296875,24.993751525878906,-15.075000762939453,-36.618751525878906
1694682686374837800,10.528837646484375,24.468751907348633,-15.018750190734863,-36.91875076293945
1694682686394850000,10.54885009765625,24.150001525878906,-15.093750953674316,-36.618751525878906
1694682686414866700,10.56886669921875,24.356250762939453,-15.61875057220459,-36.73125076293945
1694682686434856400,10.5888564453125,24.76875114440918,-15.450000762939453,-37.03125
1694682686454821600,10.608821533203125,24.468751907348633,-15.356250762939453,-36.9375
1694682686474832000,10.628831787109375,24.356250762939453,-15.093750953674316,-36.712501525878906
1694682686494848000,10.648847900390624,24.150001525878906,-15.187500953674316,-37.23750305175781
1694682686514860800,10.66886083984375,23.943750381469727,-15.093750953674316,-37.03125
1694682686534856200,10.688856201171875,24.150001525878906,-15.356250762939453,-36.73125076293945
1694682686554868500,10.708868408203125,24.881250381469727,-15.43125057220459,-36.618751525878906
1694682686574862300,10.7288623046875,24.243751525878906,-15.262500762939453,-36.9375
1694682686594867500,10.748867431640624,24.262500762939453,-15.61875057220459,-36.525001525878906
1694682686614871300,10.768871337890625,24.562501907348633,-15.262500762939453,-36.82500076293945
1694682686634863400,10.78886328125,24.150001525878906,-15.356250762939453,-37.03125
1694682686654820900,10.80882080078125,24.131250381469727,-15.375000953674316,-37.23750305175781
1694682686674822400,10.828822509765626,24.787500381469727,-15.075000762939453,-36.50625228881836
1694682686694843600,10.84884375,24.67500114440918,-15.187500953674316,-37.125
1694682686714856400,10.8688564453125,24.787500381469727,-15.43125057220459,-36.618751525878906
1694682686734862300,10.8888623046875,24.975000381469727,-15.80625057220459,-37.23750305175781
1694682686754879700,10.908879638671875,24.656251907348633,-15.71250057220459,-37.14375305175781
1694682686774885000,10.928885009765626,24.468751907348633,-15.52500057220459,-36.63750076293945
1694682686794882300,10.94888232421875,24.67500114440918,-15.262500762939453,-36.91875076293945
1694682686814886400,10.968886474609375,24.262500762939453,-15.262500762939453,-36.41250228881836
1694682686834878000,10.9888779296875,24.881250381469727,-15.356250762939453,-36.525001525878906
1694682686854824700,11.00882470703125,24.356250762939453,-15.61875057220459,-36.525001525878906
1694682686874821000,11.028821044921875,24.468751907348633,-15.543750762939453,-37.125
1694682686894826800,11.04882666015625,24.562501907348633,-15.187500953674316,-36.82500076293945
1694682686914831600,11.06883154296875,23.73750114440918,-15.187500953674316,-36.82500076293945
1694682686934836500,11.08883642578125,24.468751907348633,-15.262500762939453,-37.03125
1694682686954806300,11.10880615234375,24.262500762939453,-15.356250762939453,-36.73125076293945
1694682686974820900,11.12882080078125,24.562501907348633,-15.356250762939453,-36.82500076293945
1694682686994840300,11.14884033203125,24.468751907348633,-15.262500762939453,-36.82500076293945
1694682687014862600,11.168862548828125,24.562501907348633,-15.356250762939453,-36.9375
1694682687034876700,11.188876708984376,24.67500114440918,-15.61875057220459,-36.63750076293945
1694682687054839800,11.20883984375,24.67500114440918,-15.61875057220459,-36.337501525878906
1694682687074848000,11.228847900390624,24.468751907348633,-15.000000953674316,-36.82500076293945
1694682687094855000,11.24885498046875,24.562501907348633,-15.356250762939453,-36.618751525878906
1694682687114870000,11.2688701171875,24.056251525878906,-15.356250762939453,-36.82500076293945
1694682687134870500,11.28887060546875,24.262500762939453,-15.450000762939453,-36.73125076293945
1694682687154828800,11.308828857421876,23.943750381469727,-15.262500762939453,-36.82500076293945
1694682687174822100,11.328822265625,24.67500114440918,-15.43125057220459,-36.712501525878906
1694682687194827300,11.3488271484375,24.562501907348633,-15.262500762939453,-36.618751525878906
1694682687214843000,11.3688427734375,24.67500114440918,-15.450000762939453,-36.82500076293945
1694682687234850300,11.388850341796875,24.056251525878906,-15.262500762939453,-36.63750076293945
1694682687254812700,11.408812744140626,24.881250381469727,-15.52500057220459,-36.525001525878906
1694682687274821000,11.428821044921875,24.67500114440918,-15.43125057220459,-36.41250228881836
1694682687294846700,11.4488466796875,24.468751907348633,-15.262500762939453,-36.31875228881836
1694682687314863000,11.468863037109376,24.356250762939453,-15.450000762939453,-36.9375
1694682687334871000,11.48887109375,24.975000381469727,-16.068750381469727,-36.431251525878906
1694682687354831000,11.5088310546875,24.468751907348633,-15.881250381469727,-36.63750076293945
1694682687374848000,11.528847900390625,24.67500114440918,-16.05000114440918,-36.13125228881836
1694682687394857500,11.548857421875,24.562501907348633,-15.61875057220459,-36.525001525878906
1694682687414878000,11.5688779296875,25.087501525878906,-15.61875057220459,-36.618751525878906
1694682687434876200,11.588876220703124,24.76875114440918,-15.61875057220459,-36.73125076293945
1694682687454835700,11.608835693359374,24.881250381469727,-15.52500057220459,-36.525001525878906
1694682687474841300,11.62884130859375,24.468751907348633,-15.975000381469727,-36.63750076293945
1694682687494846000,11.648845947265626,24.881250381469727,-15.80625057220459,-36.63750076293945
1694682687514845700,11.668845703125,24.67500114440918,-15.61875057220459,-36.82500076293945
1694682687534842000,11.688842041015626,24.881250381469727,-15.71250057220459,-36.63750076293945
1694682687554860500,11.708860595703126,24.468751907348633,-16.068750381469727,-36.84375
1694682687574861000,11.728861083984375,24.975000381469727,-15.52500057220459,-36.618751525878906
1694682687594859800,11.74885986328125,24.975000381469727,-15.52500057220459,-36.712501525878906
1694682687614866000,11.768865966796875,24.787500381469727,-15.787500381469727,-36.525001525878906
1694682687634858500,11.7888583984375,24.787500381469727,-15.61875057220459,-36.431251525878906
1694682687654817500,11.808817626953125,24.993751525878906,-15.43125057220459,-36.41250228881836
1694682687674820600,11.828820556640625,24.975000381469727,-15.61875057220459,-36.525001525878906
1694682687694842600,11.848842529296874,24.881250381469727,-15.43125057220459,-36.22500228881836
1694682687714856400,11.8688564453125,24.67500114440918,-15.52500057220459,-36.41250228881836
1694682687734862800,11.88886279296875,24.562501907348633,-15.61875057220459,-36.63750076293945
1694682687754817800,11.90881787109375,24.881250381469727,-15.356250762939453,-36.712501525878906
1694682687774842400,11.92884228515625,24.881250381469727,-15.693750381469727,-36.337501525878906
1694682687794851300,11.948851318359376,24.58125114440918,-15.61875057220459,-36.13125228881836
1694682687814865400,11.968865478515625,24.787500381469727,-15.693750381469727,-36.525001525878906
1694682687834864600,11.98886474609375,24.67500114440918,-15.693750381469727,-36.337501525878906
1694682687854817500,12.008817626953125,24.67500114440918,-15.881250381469727,-36.63750076293945
1694682687874833200,12.028833251953126,24.975000381469727,-15.52500057220459,-36.82500076293945
1694682687894838500,12.048838623046874,25.087501525878906,-15.80625057220459,-36.73125076293945
1694682687914846500,12.068846435546876,25.087501525878906,-15.61875057220459,-36.618751525878906
1694682687934848500,12.0888486328125,25.293750762939453,-15.52500057220459,-36.41250228881836
1694682687954815700,12.108815673828126,25.087501525878906,-15.52500057220459,-36.31875228881836
1694682687974827800,12.128827880859374,24.881250381469727,-15.787500381469727,-36.525001525878906
1694682687994845200,12.14884521484375,24.993751525878906,-15.43125057220459,-36.41250228881836
1694682688014866000,12.168865966796876,24.881250381469727,-15.975000381469727,-36.431251525878906
1694682688034870000,12.1888701171875,24.881250381469727,-15.52500057220459,-36.618751525878906
1694682688054824000,12.208823974609375,24.468751907348633,-15.71250057220459,-36.9375
1694682688074827800,12.228827880859376,24.787500381469727,-15.52500057220459,-36.525001525878906
1694682688094840000,12.248840087890626,25.087501525878906,-15.52500057220459,-36.618751525878906
1694682688114852900,12.268852783203124,25.087501525878906,-15.693750381469727,-36.31875228881836
1694682688134858500,12.2888583984375,24.76875114440918,-16.162500381469727,-37.05000305175781
1694682688154820900,12.30882080078125,24.881250381469727,-15.356250762939453,-36.525001525878906
1694682688174818000,12.328818115234375,24.881250381469727,-15.61875057220459,-36.63750076293945
1694682688194823000,12.348822998046876,24.562501907348633,-15.52500057220459,-36.73125076293945
1694682688214834400,12.36883447265625,25.087501525878906,-15.693750381469727,-36.525001525878906
1694682688234839800,12.38883984375,24.881250381469727,-15.61875057220459,-36.63750076293945
1694682688254805500,12.408805419921874,25.293750762939453,-15.693750381469727,-36.11250305175781
1694682688274816500,12.42881640625,24.562501907348633,-15.61875057220459,-36.63750076293945
1694682688294844400,12.448844482421874,25.293750762939453,-15.881250381469727,-36.525001525878906
1694682688314862000,12.468862060546876,25.293750762939453,-15.61875057220459,-36.41250228881836
1694682688334860000,12.488860107421875,25.293750762939453,-16.125,-36.03750228881836
1694682688354823200,12.5088232421875,24.787500381469727,-15.61875057220459,-36.63750076293945
1694682688374843000,12.5288427734375,25.406251907348633,-15.61875057220459,-36.525001525878906
1694682688394854400,12.5488544921875,25.087501525878906,-15.787500381469727,-36.63750076293945
1694682688414862600,12.568862548828125,24.881250381469727,-15.43125057220459,-36.22500228881836
1694682688434864600,12.58886474609375,24.787500381469727,-15.61875057220459,-36.22500228881836
1694682688454828000,12.608828125,25.181251525878906,-15.61875057220459,-36.712501525878906
1694682688474836500,12.62883642578125,24.67500114440918,-15.637500762939453,-36.9375
1694682688494843400,12.648843505859375,24.562501907348633,-15.71250057220459,-36.73125076293945
1694682688514846700,12.6688466796875,24.881250381469727,-15.80625057220459,-36.63750076293945
1694682688534855000,12.68885498046875,24.562501907348633,-15.787500381469727,-36.525001525878906
1694682688554868000,12.708867919921875,24.787500381469727,-15.693750381469727,-36.431251525878906
1694682688574868200,12.7288681640625,24.67500114440918,-15.881250381469727,-36.73125076293945
1694682688594865400,12.748865478515626,24.76875114440918,-15.80625057220459,-36.82500076293945
1694682688614869800,12.768869873046874,24.975000381469727,-15.881250381469727,-36.63750076293945
1694682688634869500,12.788869384765626,24.468751907348633,-15.52500057220459,-36.525001525878906
1694682688654837000,12.8088369140625,24.881250381469727,-15.975000381469727,-36.525001525878906
1694682688674834700,12.828834716796875,25.200000762939453,-15.956250190734863,-36.22500228881836
1694682688694852400,12.848852294921874,24.787500381469727,-15.787500381469727,-36.337501525878906
1694682688714862600,12.868862548828124,24.562501907348633,-15.71250057220459,-36.525001525878906
1694682688734871600,12.88887158203125,24.787500381469727,-15.52500057220459,-36.618751525878906
1694682688754828000,12.908828125,25.406251907348633,-15.787500381469727,-36.31875228881836
1694682688774842000,12.928842041015624,24.356250762939453,-15.356250762939453,-36.9375
1694682688794861600,12.948861572265624,24.67500114440918,-16.068750381469727,-36.73125076293945
1694682688814865400,12.968865478515625,24.881250381469727,-15.787500381469727,-36.525001525878906
1694682688834863400,12.98886328125,24.468751907348633,-15.61875057220459,-36.337501525878906
1694682688854816300,13.008816162109374,24.881250381469727,-15.52500057220459,-36.525001525878906
1694682688874817500,13.028817626953124,24.787500381469727,-15.52500057220459,-36.618751525878906
1694682688894827800,13.048827880859376,24.562501907348633,-15.881250381469727,-36.54375076293945
1694682688914838300,13.06883837890625,24.881250381469727,-15.71250057220459,-36.63750076293945
1694682688934843000,13.0888427734375,24.975000381469727,-15.71250057220459,-37.03125
1694682688954812000,13.10881201171875,24.468751907348633,-15.80625057220459,-36.84375
1694682688974825500,13.128825439453125,24.993751525878906,-15.787500381469727,-36.337501525878906
1694682688994844000,13.148843994140625,24.468751907348633,-15.52500057220459,-36.63750076293945
1694682689014865400,13.168865478515626,24.975000381469727,-15.52500057220459,-36.712501525878906
1694682689034871000,13.18887109375,24.468751907348633,-15.61875057220459,-36.13125228881836
1694682689054881000,13.208881103515624,24.881250381469727,-15.61875057220459,-36.73125076293945
1694682689074873300,13.228873291015624,24.975000381469727,-15.61875057220459,-36.73125076293945
1694682689094875600,13.248875732421874,24.881250381469727,-15.61875057220459,-36.31875228881836
1694682689114877400,13.26887744140625,24.67500114440918,-15.43125057220459,-36.525001525878906
1694682689134874400,13.288874267578125,24.562501907348633,-15.543750762939453,-37.03125
1694682689154829600,13.30882958984375,24.468751907348633,-15.61875057220459,-36.525001525878906
1694682689174820900,13.32882080078125,24.356250762939453,-14.812500953674316,-36.712501525878906
1694682689194831400,13.348831298828125,24.468751907348633,-15.018750190734863,-36.91875076293945
1694682689214844000,13.368843994140626,24.67500114440918,-15.43125057220459,-36.31875228881836
1694682689234847500,13.388847412109374,24.67500114440918,-15.61875057220459,-36.82500076293945
1694682689254809900,13.408809814453125,25.106250762939453,-15.52500057220459,-36.11250305175781
1694682689274829600,13.42882958984375,25.406251907348633,-15.71250057220459,-36.712501525878906
1694682689294853000,13.44885302734375,24.993751525878906,-15.881250381469727,-36.431251525878906
1694682689314867500,13.468867431640625,25.181251525878906,-15.80625057220459,-36.73125076293945
1694682689334862600,13.488862548828125,24.975000381469727,-15.61875057220459,-36.9375
1694682689354824000,13.508823974609374,24.993751525878906,-15.52500057220459,-36.22500228881836
1694682689374842400,13.52884228515625,24.67500114440918,-15.881250381469727,-36.431251525878906
1694682689394854400,13.5488544921875,25.087501525878906,-15.52500057220459,-36.712501525878906
1694682689414864400,13.568864501953126,24.562501907348633,-15.52500057220459,-36.73125076293945
1694682689434854100,13.588854248046875,24.67500114440918,-15.61875057220459,-36.431251525878906
1694682689454814500,13.608814453125,24.993751525878906,-15.787500381469727,-36.337501525878906
1694682689474818800,13.62881884765625,25.181251525878906,-15.43125057220459,-36.50625228881836
1694682689494830300,13.648830322265624,24.468751907348633,-15.61875057220459,-36.63750076293945
1694682689514835500,13.66883544921875,24.787500381469727,-15.52500057220459,-36.618751525878906
1694682689534835500,13.68883544921875,24.468751907348633,-15.61875057220459,-36.431251525878906
1694682689554797800,13.7087978515625,24.975000381469727,-15.61875057220459,-36.73125076293945
1694682689574817300,13.7288173828125,24.975000381469727,-15.71250057220459,-36.9375
1694682689594840800,13.7488408203125,24.562501907348633,-15.787500381469727,-36.525001525878906
1694682689614855000,13.76885498046875,25.61250114440918,-15.787500381469727,-36.01875305175781
1694682689634861800,13.78886181640625,24.562501907348633,-15.881250381469727,-36.337501525878906
1694682689654834200,13.808834228515625,24.975000381469727,-15.71250057220459,-36.63750076293945
1694682689674835700,13.828835693359375,24.356250762939453,-15.71250057220459,-36.525001525878906
1694682689694855700,13.848855712890625,24.975000381469727,-15.71250057220459,-36.82500076293945
1694682689714867000,13.868866943359375,24.881250381469727,-15.881250381469727,-36.337501525878906
1694682689734864100,13.888864013671874,24.787500381469727,-15.52500057220459,-36.41250228881836
1694682689754823000,13.908822998046874,25.181251525878906,-15.80625057220459,-36.73125076293945
1694682689774839600,13.928839599609375,24.562501907348633,-15.975000381469727,-36.63750076293945
1694682689794860300,13.9488603515625,24.67500114440918,-15.787500381469727,-36.22500228881836
1694682689814865200,13.968865234375,24.975000381469727,-15.43125057220459,-36.712501525878906
1694682689834863600,13.988863525390625,24.993751525878906,-15.881250381469727,-36.337501525878906
1694682689854820000,14.008820068359375,24.67500114440918,-15.71250057220459,-36.9375
1694682689874820900,14.02882080078125,24.562501907348633,-15.975000381469727,-36.337501525878906
1694682689894829600,14.04882958984375,24.881250381469727,-15.881250381469727,-36.73125076293945
1694682689914839800,14.06883984375,24.993751525878906,-15.33750057220459,-36.20625305175781
1694682689934844000,14.088843994140625,24.881250381469727,-15.61875057220459,-36.41250228881836
1694682689954813000,14.10881298828125,24.562501907348633,-15.71250057220459,-36.73125076293945
1694682689974826000,14.128825927734376,24.881250381469727,-15.787500381469727,-36.525001525878906
1694682689994844200,14.14884423828125,24.787500381469727,-15.787500381469727,-36.13125228881836
1694682690014865700,14.16886572265625,24.150001525878906,-15.637500762939453,-36.84375
1694682690034870000,14.1888701171875,24.975000381469727,-15.61875057220459,-36.525001525878906
1694682690054880800,14.208880859375,24.881250381469727,-15.61875057220459,-36.73125076293945
1694682690074872800,14.228872802734376,24.881250381469727,-15.80625057220459,-36.63750076293945
1694682690094880000,14.2488798828125,24.993751525878906,-15.61875057220459,-36.41250228881836
1694682690114880800,14.268880859375,24.975000381469727,-15.787500381469727,-36.63750076293945
1694682690134869000,14.288868896484376,24.76875114440918,-15.80625057220459,-36.73125076293945
1694682690154878700,14.308878662109375,25.181251525878906,-15.61875057220459,-36.41250228881836
1694682690174861300,14.328861328125,25.087501525878906,-15.787500381469727,-36.431251525878906
1694682690194853000,14.34885302734375,24.468751907348633,-15.693750381469727,-36.337501525878906
1694682690214853400,14.368853271484374,24.787500381469727,-15.61875057220459,-36.431251525878906
1694682690234850300,14.388850341796875,24.562501907348633,-15.356250762939453,-36.618751525878906
1694682690254809600,14.4088095703125,24.881250381469727,-16.14375114440918,-36.54375076293945
1694682690274827800,14.428827880859375,24.468751907348633,-15.787500381469727,-36.54375076293945
1694682690294850600,14.4488505859375,24.468751907348633,-15.61875057220459,-36.525001525878906
1694682690314864400,14.468864501953124,24.468751907348633,-15.693750381469727,-36.337501525878906
1694682690334859300,14.488859375,25.181251525878906,-15.975000381469727,-36.73125076293945
1694682690354821000,14.508821044921875,25.181251525878906,-15.80625057220459,-37.03125
1694682690374839800,14.52883984375,24.150001525878906,-15.693750381469727,-36.431251525878906
1694682690394844000,14.548843994140626,24.468751907348633,-15.80625057220459,-36.9375
1694682690414846000,14.568845947265626,24.468751907348633,-15.356250762939453,-36.712501525878906
1694682690434840600,14.588840576171876,24.562501907348633,-15.71250057220459,-36.73125076293945
1694682690454802000,14.608802001953125,24.881250381469727,-15.356250762939453,-36.525001525878906
1694682690474809900,14.628809814453126,24.67500114440918,-15.52500057220459,-36.41250228881836
1694682690494824200,14.64882421875,24.787500381469727,-15.787500381469727,-36.525001525878906
1694682690514832400,14.668832275390624,25.087501525878906,-15.787500381469727,-36.63750076293945
1694682690534838300,14.68883837890625,24.787500381469727,-15.881250381469727,-36.525001525878906
1694682690554800600,14.708800537109376,24.975000381469727,-15.356250762939453,-36.618751525878906
1694682690574820400,14.7288203125,24.67500114440918,-15.693750381469727,-36.525001525878906
1694682690594843400,14.748843505859375,24.562501907348633,-15.61875057220459,-36.525001525878906
1694682690614857200,14.768857177734375,24.787500381469727,-15.693750381469727,-36.22500228881836
1694682690634856200,14.788856201171875,25.181251525878906,-15.80625057220459,-36.82500076293945
1694682690654818800,14.80881884765625,24.881250381469727,-15.52500057220459,-36.41250228881836
1694682690674835500,14.82883544921875,24.468751907348633,-15.637500762939453,-36.9375
1694682690694856000,14.84885595703125,24.881250381469727,-15.80625057220459,-36.73125076293945
1694682690714867700,14.86886767578125,24.150001525878906,-15.80625057220459,-36.84375
1694682690734865400,14.888865478515624,24.787500381469727,-15.61875057220459,-36.63750076293945
1694682690754824400,14.908824462890625,25.387500762939453,-15.881250381469727,-37.125
1694682690774829600,14.92882958984375,24.67500114440918,-15.71250057220459,-36.63750076293945
1694682690794845200,14.94884521484375,24.993751525878906,-15.52500057220459,-36.31875228881836
1694682690814853600,14.968853515625,24.468751907348633,-15.787500381469727,-36.54375076293945
1694682690834855700,14.988855712890626,24.993751525878906,-15.787500381469727,-36.337501525878906
1694682690854811000,15.008810791015625,25.293750762939453,-15.61875057220459,-36.82500076293945
1694682690874814700,15.028814697265625,25.087501525878906,-15.71250057220459,-36.63750076293945
1694682690894833000,15.0488330078125,24.975000381469727,-15.881250381469727,-36.525001525878906
1694682690914854700,15.068854736328126,24.356250762939453,-15.61875057220459,-36.431251525878906
1694682690934856000,15.08885595703125,24.975000381469727,-15.787500381469727,-36.63750076293945
1694682690954822100,15.108822265625,25.200000762939453,-15.52500057220459,-36.31875228881836
1694682690974833000,15.1288330078125,24.881250381469727,-15.881250381469727,-36.431251525878906
1694682690994849000,15.14884912109375,24.787500381469727,-15.881250381469727,-36.525001525878906
1694682691014868700,15.16886865234375,24.67500114440918,-15.356250762939453,-36.618751525878906
1694682691034872000,15.1888720703125,24.881250381469727,-15.61875057220459,-36.82500076293945
1694682691054827000,15.208826904296876,24.67500114440918,-15.693750381469727,-36.525001525878906
1694682691074833400,15.22883349609375,24.975000381469727,-15.787500381469727,-36.63750076293945
1694682691094839600,15.248839599609376,24.356250762939453,-15.71250057220459,-36.63750076293945
1694682691114844400,15.268844482421875,24.76875114440918,-15.71250057220459,-36.73125076293945
1694682691134844200,15.28884423828125,24.881250381469727,-15.693750381469727,-36.337501525878906
1694682691154862000,15.308862060546875,24.150001525878906,-15.543750762939453,-36.9375
1694682691174853000,15.32885302734375,24.76875114440918,-15.80625057220459,-36.9375
1694682691194852900,15.348852783203125,24.356250762939453,-15.80625057220459,-36.9375
1694682691214845400,15.368845458984374,24.562501907348633,-15.881250381469727,-36.431251525878906
1694682691234846200,15.38884619140625,25.087501525878906,-15.71250057220459,-37.125
1694682691254808300,15.408808349609375,24.881250381469727,-15.262500762939453,-36.41250228881836
1694682691274828300,15.428828369140625,24.993751525878906,-15.862500190734863,-36.13125228881836
1694682691294852000,15.44885205078125,25.181251525878906,-15.450000762939453,-36.91875076293945
1694682691314866400,15.468866455078125,24.881250381469727,-15.262500762939453,-36.41250228881836
1694682691334861800,15.48886181640625,24.562501907348633,-15.71250057220459,-36.525001525878906
1694682691354823400,15.508823486328126,24.262500762939453,-15.52500057220459,-36.525001525878906
1694682691374842000,15.528842041015626,24.881250381469727,-15.881250381469727,-36.525001525878906
1694682691394847200,15.54884716796875,24.881250381469727,-15.61875057220459,-36.525001525878906
1694682691414853000,15.56885302734375,25.181251525878906,-15.693750381469727,-36.525001525878906
1694682691434857500,15.588857421875,24.881250381469727,-15.80625057220459,-36.63750076293945
1694682691454815000,15.60881494140625,24.562501907348633,-15.43125057220459,-36.63750076293945
1694682691474819800,15.62881982421875,24.67500114440918,-15.787500381469727,-36.525001525878906
1694682691494831400,15.648831298828124,24.67500114440918,-15.881250381469727,-36.84375
1694682691514848000,15.668847900390626,24.975000381469727,-15.80625057220459,-36.73125076293945
1694682691534845200,15.68884521484375,24.562501907348633,-15.975000381469727,-36.63750076293945
1694682691554805000,15.708804931640625,25.087501525878906,-15.80625057220459,-36.82500076293945
1694682691574822100,15.728822265625,25.293750762939453,-15.693750381469727,-36.618751525878906
1694682691594844000,15.748843994140625,24.76875114440918,-16.068750381469727,-36.73125076293945
1694682691614856700,15.768856689453125,25.087501525878906,-15.71250057220459,-36.73125076293945
1694682691634855200,15.788855224609375,24.975000381469727,-15.43125057220459,-36.618751525878906
1694682691654817800,15.80881787109375,25.406251907348633,-15.52500057220459,-36.50625228881836
1694682691674834000,15.828833984375,24.881250381469727,-15.52500057220459,-36.31875228881836
1694682691694854400,15.8488544921875,24.787500381469727,-15.71250057220459,-36.63750076293945
1694682691714868500,15.868868408203125,24.356250762939453,-15.52500057220459,-36.525001525878906
1694682691734865700,15.88886572265625,24.67500114440918,-15.881250381469727,-36.431251525878906
1694682691754824400,15.908824462890625,24.356250762939453,-15.52500057220459,-36.73125076293945
1694682691774829600,15.92882958984375,24.76875114440918,-15.881250381469727,-36.63750076293945
1694682691794845700,15.948845703125,24.67500114440918,-15.61875057220459,-36.63750076293945
1694682691814853600,15.968853515625,24.67500114440918,-15.693750381469727,-36.525001525878906
1694682691834855400,15.98885546875,25.087501525878906,-15.787500381469727,-36.22500228881836
1694682691854811000,16.008810791015627,24.975000381469727,-15.975000381469727,-36.525001525878906
1694682691874814000,16.02881396484375,24.375001907348633,-15.43125057220459,-36.337501525878906
1694682691894831900,16.048831787109375,24.562501907348633,-15.61875057220459,-36.525001525878906
1694682691914853600,16.068853515625,24.881250381469727,-15.693750381469727,-36.431251525878906
1694682691934866400,16.088866455078126,25.087501525878906,-15.693750381469727,-36.41250228881836
1694682691954830600,16.10883056640625,24.562501907348633,-15.52500057220459,-36.525001525878906
1694682691974839000,16.128839111328126,24.468751907348633,-15.787500381469727,-36.431251525878906
1694682691994853400,16.148853271484374,24.881250381469727,-15.356250762939453,-36.41250228881836
1694682692014871600,16.16887158203125,24.975000381469727,-15.80625057220459,-36.82500076293945
1694682692034874000,16.1888740234375,24.562501907348633,-15.52500057220459,-36.73125076293945
1694682692054833400,16.20883349609375,24.881250381469727,-15.787500381469727,-36.13125228881836
1694682692074849800,16.228849853515626,24.056251525878906,-15.61875057220459,-36.22500228881836
1694682692094851600,16.2488515625,24.881250381469727,-15.61875057220459,-36.82500076293945
1694682692114860300,16.2688603515625,24.76875114440918,-15.80625057220459,-36.63750076293945
1694682692134857500,16.288857421875,25.293750762939453,-15.61875057220459,-36.82500076293945
1694682692154815000,16.30881494140625,24.67500114440918,-15.71250057220459,-36.73125076293945
1694682692174829600,16.32882958984375,25.200000762939453,-15.787500381469727,-36.22500228881836
1694682692194831000,16.3488310546875,24.787500381469727,-15.61875057220459,-36.63750076293945
1694682692214842400,16.36884228515625,24.356250762939453,-15.543750762939453,-36.82500076293945
1694682692234852400,16.388852294921875,24.787500381469727,-15.693750381469727,-36.22500228881836
1694682692254814200,16.408814208984374,24.881250381469727,-15.43125057220459,-36.618751525878906
1694682692274833700,16.428833740234374,24.787500381469727,-15.52500057220459,-36.41250228881836
1694682692294856400,16.4488564453125,24.787500381469727,-15.71250057220459,-36.63750076293945
1694682692314870300,16.468870361328126,24.881250381469727,-15.61875057220459,-36.73125076293945
1694682692334864600,16.48886474609375,24.67500114440918,-15.80625057220459,-36.63750076293945
1694682692354825500,16.508825439453126,24.787500381469727,-15.881250381469727,-36.431251525878906
1694682692374844400,16.528844482421874,25.087501525878906,-15.693750381469727,-36.525001525878906
1694682692394848000,16.548847900390626,24.881250381469727,-15.61875057220459,-36.525001525878906
1694682692414853600,16.568853515625,25.406251907348633,-16.068750381469727,-36.73125076293945
1694682692434858500,16.5888583984375,25.087501525878906,-15.975000381469727,-36.525001525878906
1694682692454815500,16.6088154296875,24.787500381469727,-15.787500381469727,-36.431251525878906
1694682692474819300,16.6288193359375,24.975000381469727,-15.975000381469727,-36.63750076293945
1694682692494830600,16.64883056640625,25.293750762939453,-15.61875057220459,-36.31875228881836
1694682692514839000,16.668839111328126,24.993751525878906,-15.61875057220459,-36.41250228881836
1694682692534840600,16.688840576171874,24.67500114440918,-15.52500057220459,-36.63750076293945
1694682692554801400,16.708801513671876,25.087501525878906,-15.71250057220459,-36.63750076293945
1694682692574819800,16.72881982421875,24.562501907348633,-15.975000381469727,-36.431251525878906
1694682692594842400,16.74884228515625,24.86250114440918,-15.975000381469727,-36.9375
1694682692614856000,16.76885595703125,24.356250762939453,-15.61875057220459,-36.525001525878906
1694682692634854700,16.788854736328126,24.356250762939453,-15.543750762939453,-36.82500076293945
1694682692654817800,16.80881787109375,24.562501907348633,-15.80625057220459,-36.73125076293945
1694682692674834200,16.828834228515625,24.468751907348633,-15.71250057220459,-36.63750076293945
1694682692694855000,16.84885498046875,25.181251525878906,-16.068750381469727,-36.84375
1694682692714862300,16.8688623046875,25.406251907348633,-15.71250057220459,-36.712501525878906
1694682692734864400,16.888864501953126,24.787500381469727,-15.787500381469727,-36.525001525878906
1694682692754823400,16.908823486328124,24.67500114440918,-15.71250057220459,-36.73125076293945
1694682692774828800,16.928828857421873,24.787500381469727,-15.52500057220459,-36.31875228881836
1694682692794844400,16.948844482421876,24.67500114440918,-15.975000381469727,-36.73125076293945
1694682692814852900,16.968852783203126,25.500001907348633,-15.881250381469727,-36.525001525878906
1694682692834861600,16.988861572265623,24.562501907348633,-15.61875057220459,-36.73125076293945
1694682692854868200,17.0088681640625,24.150001525878906,-15.80625057220459,-36.63750076293945
1694682692874860800,17.02886083984375,24.787500381469727,-15.61875057220459,-36.525001525878906
1694682692894866200,17.0488662109375,24.67500114440918,-15.693750381469727,-36.337501525878906
1694682692914877400,17.06887744140625,24.468751907348633,-15.52500057220459,-36.525001525878906
1694682692934881500,17.088881591796873,24.562501907348633,-15.356250762939453,-36.525001525878906
1694682692954838800,17.1088388671875,24.67500114440918,-15.975000381469727,-36.73125076293945
1694682692974842600,17.128842529296875,25.181251525878906,-15.71250057220459,-36.82500076293945
1694682692994853400,17.148853271484374,24.562501907348633,-15.61875057220459,-36.63750076293945
1694682693014869500,17.168869384765625,24.975000381469727,-15.61875057220459,-36.618751525878906
1694682693034870300,17.188870361328124,24.67500114440918,-15.71250057220459,-36.9375
1694682693054821600,17.208821533203125,24.562501907348633,-15.693750381469727,-36.337501525878906
1694682693074832400,17.228832275390626,24.881250381469727,-15.881250381469727,-36.431251525878906
1694682693094849000,17.24884912109375,24.881250381469727,-15.881250381469727,-36.525001525878906
1694682693114858500,17.2688583984375,24.881250381469727,-15.881250381469727,-36.431251525878906
1694682693134855200,17.288855224609375,24.975000381469727,-15.787500381469727,-36.525001525878906
1694682693154820400,17.3088203125,24.76875114440918,-15.71250057220459,-36.9375
1694682693174816500,17.32881640625,25.406251907348633,-15.61875057220459,-36.712501525878906
1694682693194821600,17.348821533203125,25.087501525878906,-15.787500381469727,-36.431251525878906
1694682693214840800,17.3688408203125,24.86250114440918,-15.637500762939453,-36.9375
1694682693234855000,17.38885498046875,25.406251907348633,-15.61875057220459,-36.618751525878906
1694682693254817000,17.408817138671875,24.562501907348633,-15.43125057220459,-36.41250228881836
1694682693274836000,17.4288359375,24.787500381469727,-15.43125057220459,-36.618751525878906
1694682693294858200,17.448858154296875,24.787500381469727,-15.43125057220459,-36.618751525878906
1694682693314871600,17.46887158203125,24.881250381469727,-15.71250057220459,-36.73125076293945
1694682693334865700,17.48886572265625,25.293750762939453,-15.975000381469727,-36.9375
1694682693354828500,17.50882861328125,24.67500114440918,-15.43125057220459,-36.41250228881836
1694682693374838000,17.528838134765625,24.787500381469727,-15.787500381469727,-36.431251525878906
1694682693394852400,17.548852294921875,24.67500114440918,-15.693750381469727,-36.525001525878906
1694682693414857000,17.56885693359375,24.76875114440918,-15.43125057220459,-36.712501525878906
1694682693434859800,17.58885986328125,24.562501907348633,-15.52500057220459,-36.525001525878906
1694682693454816800,17.608816650390626,24.993751525878906,-15.956250190734863,-35.92500305175781
1694682693474821400,17.6288212890625,24.67500114440918,-15.80625057220459,-36.73125076293945
1694682693494831900,17.648831787109376,24.562501907348633,-15.52500057220459,-36.63750076293945
1694682693514837500,17.66883740234375,24.468751907348633,-15.543750762939453,-36.9375
1694682693534837000,17.6888369140625,24.562501907348633,-15.693750381469727,-36.431251525878906
1694682693554798600,17.708798583984375,24.356250762939453,-15.80625057220459,-36.63750076293945
1694682693574817800,17.72881787109375,24.562501907348633,-15.356250762939453,-36.618751525878906
1694682693594840800,17.7488408203125,25.181251525878906,-15.637500762939453,-37.03125
1694682693614855000,17.76885498046875,24.881250381469727,-15.80625057220459,-36.73125076293945
1694682693634861300,17.788861328125,24.975000381469727,-15.61875057220459,-36.618751525878906
1694682693654834200,17.808834228515625,24.881250381469727,-15.80625057220459,-36.73125076293945
1694682693674846700,17.8288466796875,24.975000381469727,-15.787500381469727,-36.63750076293945
1694682693694864100,17.848864013671875,24.76875114440918,-15.637500762939453,-36.9375
1694682693714866400,17.868866455078123,24.993751525878906,-15.43125057220459,-36.525001525878906
1694682693734877700,17.888877685546873,24.881250381469727,-15.787500381469727,-36.431251525878906
1694682693754833000,17.9088330078125,24.562501907348633,-15.61875057220459,-36.73125076293945
1694682693774835200,17.928835205078126,24.787500381469727,-16.23750114440918,-36.337501525878906
1694682693794848500,17.9488486328125,24.881250381469727,-15.61875057220459,-36.41250228881836
1694682693814857000,17.96885693359375,24.562501907348633,-15.80625057220459,-36.63750076293945
1694682693834872300,17.988872314453126,24.562501907348633,-15.71250057220459,-36.63750076293945
1694682693854824200,18.00882421875,24.76875114440918,-15.975000381469727,-36.63750076293945
1694682693874830600,18.02883056640625,24.975000381469727,-15.52500057220459,-36.82500076293945
1694682693894843600,18.04884375,25.293750762939453,-15.52500057220459,-36.41250228881836
1694682693914861300,18.068861328125,25.087501525878906,-15.956250190734863,-36.337501525878906
1694682693934871000,18.08887109375,25.406251907348633,-15.693750381469727,-36.41250228881836
1694682693954832100,18.10883203125,24.67500114440918,-15.71250057220459,-36.73125076293945
1694682693974839000,18.128839111328126,24.468751907348633,-15.80625057220459,-36.63750076293945
1694682693994852400,18.148852294921873,24.76875114440918,-15.637500762939453,-36.9375
1694682694014870000,18.1688701171875,24.787500381469727,-15.787500381469727,-36.525001525878906
1694682694034872000,18.1888720703125,24.76875114440918,-15.881250381469727,-36.84375
1694682694054823400,18.208823486328125,24.468751907348633,-15.61875057220459,-36.337501525878906
1694682694074834400,18.22883447265625,24.356250762939453,-15.71250057220459,-36.84375
1694682694094851000,18.24885107421875,24.150001525878906,-15.881250381469727,-36.54375076293945
1694682694114852900,18.268852783203126,24.150001525878906,-15.71250057220459,-36.54375076293945
1694682694134850300,18.288850341796874,24.562501907348633,-15.450000762939453,-37.03125
1694682694154866000,18.308865966796876,24.356250762939453,-15.450000762939453,-36.73125076293945
1694682694174851300,18.328851318359376,24.150001525878906,-15.543750762939453,-36.9375
1694682694194851000,18.34885107421875,24.787500381469727,-15.43125057220459,-36.22500228881836
1694682694214850300,18.368850341796875,24.86250114440918,-15.637500762939453,-37.03125
1694682694234849500,18.388849609375,24.76875114440918,-15.52500057220459,-36.82500076293945
1694682694254810400,18.408810302734373,24.787500381469727,-15.262500762939453,-36.31875228881836
1694682694274829600,18.42882958984375,24.881250381469727,-15.356250762939453,-36.91875076293945
1694682694294852600,18.4488525390625,24.86250114440918,-15.543750762939453,-37.03125
1694682694314866700,18.46886669921875,24.67500114440918,-15.693750381469727,-36.431251525878906
1694682694334861600,18.488861572265623,24.468751907348633,-15.71250057220459,-36.525001525878906
1694682694354815200,18.508815185546876,24.881250381469727,-15.881250381469727,-36.73125076293945
1694682694374828000,18.528828125,24.881250381469727,-15.61875057220459,-36.41250228881836
1694682694394838800,18.5488388671875,23.943750381469727,-15.61875057220459,-36.54375076293945
1694682694414847200,18.56884716796875,24.562501907348633,-15.881250381469727,-36.63750076293945
1694682694434854000,18.58885400390625,24.468751907348633,-15.61875057220459,-36.431251525878906
1694682694454812400,18.6088125,24.67500114440918,-15.52500057220459,-36.22500228881836
1694682694474818600,18.628818603515626,24.76875114440918,-15.61875057220459,-36.73125076293945
1694682694494831400,18.648831298828124,24.356250762939453,-15.80625057220459,-36.73125076293945
1694682694514841300,18.66884130859375,24.262500762939453,-15.262500762939453,-36.525001525878906
1694682694534840600,18.688840576171874,23.943750381469727,-15.356250762939453,-36.63750076293945
1694682694554801700,18.7088017578125,24.468751907348633,-15.80625057220459,-36.84375
1694682694574820400,18.7288203125,24.562501907348633,-15.43125057220459,-36.22500228881836
1694682694594843000,18.7488427734375,24.468751907348633,-15.543750762939453,-36.9375
1694682694614856400,18.7688564453125,24.468751907348633,-15.43125057220459,-36.41250228881836
1694682694634856700,18.788856689453127,24.468751907348633,-15.61875057220459,-36.73125076293945
1694682694654819000,18.808819091796874,24.787500381469727,-15.262500762939453,-36.618751525878906
1694682694674835200,18.828835205078125,24.356250762939453,-15.787500381469727,-36.431251525878906
1694682694694855700,18.848855712890625,25.087501525878906,-15.52500057220459,-36.525001525878906
1694682694714863000,18.868863037109374,24.262500762939453,-15.52500057220459,-36.525001525878906
1694682694734868700,18.88886865234375,24.881250381469727,-15.787500381469727,-36.431251525878906
1694682694754826800,18.90882666015625,23.943750381469727,-15.61875057220459,-36.243751525878906
1694682694774823400,18.928823486328124,23.943750381469727,-15.61875057220459,-36.73125076293945
1694682694794828800,18.948828857421876,24.356250762939453,-15.356250762939453,-36.525001525878906
1694682694814840800,18.9688408203125,24.562501907348633,-15.80625057220459,-36.84375
1694682694834865200,18.988865234375,24.056251525878906,-15.543750762939453,-36.73125076293945
1694682694854826500,19.008826416015626,24.243751525878906,-15.61875057220459,-36.73125076293945
1694682694874833700,19.028833740234376,24.262500762939453,-15.356250762939453,-36.73125076293945
1694682694894847200,19.04884716796875,24.76875114440918,-15.61875057220459,-36.73125076293945
1694682694914865000,19.068864990234374,24.056251525878906,-15.356250762939453,-36.431251525878906
1694682694934873900,19.088873779296875,24.468751907348633,-15.787500381469727,-36.431251525878906
1694682694954834700,19.108834716796874,24.76875114440918,-15.71250057220459,-36.9375
1694682694974841300,19.12884130859375,24.356250762939453,-15.61875057220459,-36.431251525878906
1694682694994854100,19.148854248046874,24.67500114440918,-15.43125057220459,-36.525001525878906
1694682695014871300,19.168871337890625,24.468751907348633,-15.61875057220459,-36.525001525878906
1694682695034873300,19.188873291015625,24.468751907348633,-15.262500762939453,-36.91875076293945
1694682695054824400,19.208824462890625,24.356250762939453,-16.068750381469727,-36.54375076293945
1694682695074835500,19.22883544921875,24.562501907348633,-15.787500381469727,-36.22500228881836
1694682695094851800,19.248851806640626,24.67500114440918,-15.71250057220459,-36.82500076293945
1694682695114853000,19.26885302734375,24.375001907348633,-15.862500190734863,-36.13125228881836
1694682695134850800,19.288850830078125,24.037500381469727,-16.068750381469727,-36.84375
1694682695154866400,19.308866455078125,24.67500114440918,-15.52500057220459,-36.41250228881836
1694682695174857200,19.328857177734374,24.562501907348633,-15.43125057220459,-36.63750076293945
1694682695194851300,19.348851318359376,24.356250762939453,-15.187500953674316,-36.618751525878906
1694682695214861600,19.368861572265626,24.056251525878906,-15.450000762939453,-36.73125076293945
1694682695234865400,19.388865478515626,25.087501525878906,-15.356250762939453,-36.618751525878906
1694682695254822400,19.408822509765624,24.993751525878906,-15.262500762939453,-36.41250228881836
1694682695274837800,19.428837646484375,24.468751907348633,-15.52500057220459,-36.63750076293945
1694682695294858000,19.44885791015625,24.881250381469727,-15.43125057220459,-36.618751525878906
1694682695314869500,19.468869384765625,24.356250762939453,-15.80625057220459,-36.84375
1694682695334874000,19.4888740234375,25.181251525878906,-15.43125057220459,-36.712501525878906
1694682695354826000,19.508825927734375,25.181251525878906,-15.52500057220459,-36.618751525878906
1694682695374837000,19.5288369140625,25.406251907348633,-16.23750114440918,-36.525001525878906
1694682695394856200,19.548856201171876,24.993751525878906,-15.61875057220459,-36.41250228881836
1694682695414859500,19.568859619140625,24.67500114440918,-15.71250057220459,-36.9375
1694682695434861300,19.588861328125,25.181251525878906,-15.693750381469727,-36.525001525878906
1694682695454816800,19.608816650390626,24.881250381469727,-15.61875057220459,-36.82500076293945
1694682695474820400,19.6288203125,24.787500381469727,-15.693750381469727,-36.431251525878906
1694682695494839800,19.64883984375,25.293750762939453,-15.168750762939453,-36.618751525878906
1694682695514842400,19.66884228515625,24.243751525878906,-15.356250762939453,-36.82500076293945
1694682695534847700,19.68884765625,24.975000381469727,-15.43125057220459,-36.618751525878906
1694682695554817800,19.70881787109375,24.881250381469727,-15.52500057220459,-36.525001525878906
1694682695574831600,19.72883154296875,24.975000381469727,-16.068750381469727,-36.73125076293945
1694682695594850600,19.7488505859375,25.406251907348633,-15.787500381469727,-36.618751525878906
1694682695614861000,19.768861083984376,24.67500114440918,-15.61875057220459,-36.525001525878906
1694682695634870300,19.788870361328126,25.293750762939453,-15.693750381469727,-36.525001525878906
1694682695654828500,19.80882861328125,24.67500114440918,-15.975000381469727,-36.63750076293945
1694682695674841000,19.828841064453126,25.200000762939453,-15.787500381469727,-36.22500228881836
1694682695694862600,19.848862548828127,25.500001907348633,-15.693750381469727,-36.618751525878906
1694682695714863900,19.86886376953125,25.087501525878906,-15.52500057220459,-36.525001525878906
1694682695734868000,19.888867919921875,25.293750762939453,-15.693750381469727,-36.525001525878906
1694682695754825200,19.9088251953125,24.76875114440918,-15.80625057220459,-36.73125076293945
1694682695774823000,19.928822998046876,25.293750762939453,-15.43125057220459,-36.618751525878906
1694682695794828000,19.948828125,25.181251525878906,-15.43125057220459,-36.50625228881836
1694682695814840000,19.968840087890626,24.468751907348633,-15.61875057220459,-36.431251525878906
1694682695834847500,19.988847412109376,24.881250381469727,-15.61875057220459,-36.63750076293945
1694682695854813000,20.00881298828125,25.293750762939453,-16.068750381469727,-36.525001525878906
1694682695874823700,20.02882373046875,25.406251907348633,-15.52500057220459,-36.20625305175781
1694682695894840000,20.048840087890625,24.881250381469727,-15.52500057220459,-36.618751525878906
1694682695914860300,20.0688603515625,25.087501525878906,-15.787500381469727,-36.63750076293945
1694682695934871300,20.088871337890627,24.468751907348633,-15.787500381469727,-36.337501525878906
1694682695954834000,20.108833984375,25.087501525878906,-15.43125057220459,-36.618751525878906
1694682695974841300,20.12884130859375,24.881250381469727,-15.787500381469727,-36.525001525878906
1694682695994854700,20.148854736328126,24.787500381469727,-15.61875057220459,-36.525001525878906
1694682696014872000,20.1688720703125,24.993751525878906,-15.881250381469727,-36.337501525878906
1694682696034873900,20.188873779296873,24.67500114440918,-15.52500057220459,-36.41250228881836
1694682696054825200,20.2088251953125,24.67500114440918,-15.787500381469727,-36.431251525878906
1694682696074836000,20.2288359375,24.787500381469727,-15.52500057220459,-36.31875228881836
1694682696094852900,20.248852783203127,24.881250381469727,-15.61875057220459,-36.525001525878906
1694682696114854100,20.268854248046875,25.181251525878906,-15.787500381469727,-36.31875228881836
1694682696134850800,20.288850830078125,24.975000381469727,-15.61875057220459,-36.618751525878906
1694682696154808800,20.308808837890624,25.387500762939453,-15.637500762939453,-37.01250076293945
1694682696174807300,20.328807373046875,25.61250114440918,-15.787500381469727,-36.41250228881836
1694682696194816000,20.34881591796875,25.181251525878906,-15.71250057220459,-36.712501525878906
1694682696214837000,20.3688369140625,25.087501525878906,-15.43125057220459,-36.525001525878906
1694682696234842600,20.388842529296873,24.86250114440918,-15.80625057220459,-37.03125
1694682696254808000,20.40880810546875,25.293750762939453,-15.262500762939453,-36.41250228881836
1694682696274818800,20.42881884765625,24.562501907348633,-15.80625057220459,-36.73125076293945
1694682696294846200,20.44884619140625,24.67500114440918,-15.43125057220459,-36.712501525878906
1694682696314863600,20.468863525390624,24.881250381469727,-15.450000762939453,-36.91875076293945
1694682696334872300,20.488872314453126,25.293750762939453,-16.14375114440918,-36.13125228881836
1694682696354825700,20.50882568359375,24.356250762939453,-15.543750762939453,-36.9375
1694682696374826800,20.52882666015625,25.087501525878906,-15.52500057220459,-36.618751525878906
1694682696394842000,20.548842041015625,24.86250114440918,-15.637500762939453,-37.125
1694682696414861600,20.568861572265625,24.881250381469727,-15.52500057220459,-36.82500076293945
1694682696434864400,20.588864501953125,24.356250762939453,-15.187500953674316,-36.618751525878906
1694682696454820400,20.6088203125,24.562501907348633,-15.356250762939453,-36.41250228881836
1694682696474823200,20.6288232421875,24.468751907348633,-15.43125057220459,-36.63750076293945
1694682696494852900,20.648852783203125,24.881250381469727,-15.61875057220459,-36.31875228881836
1694682696514863900,20.66886376953125,25.200000762939453,-15.787500381469727,-36.22500228881836
1694682696534864400,20.688864501953127,24.975000381469727,-15.61875057220459,-36.525001525878906
1694682696554829800,20.708829833984375,25.293750762939453,-15.693750381469727,-36.41250228881836
1694682696574840000,20.728840087890624,24.562501907348633,-15.543750762939453,-36.82500076293945
1694682696594855700,20.748855712890624,24.881250381469727,-15.693750381469727,-36.431251525878906
1694682696614864000,20.76886376953125,24.787500381469727,-15.693750381469727,-36.337501525878906
1694682696634859000,20.78885888671875,24.67500114440918,-15.693750381469727,-36.22500228881836
1694682696654818800,20.80881884765625,25.293750762939453,-15.693750381469727,-36.525001525878906
1694682696674833700,20.828833740234376,24.881250381469727,-15.52500057220459,-36.22500228881836
1694682696694855400,20.84885546875,25.181251525878906,-15.787500381469727,-36.31875228881836
1694682696714869000,20.868868896484376,24.975000381469727,-15.61875057220459,-36.73125076293945
1694682696734872600,20.88887255859375,24.562501907348633,-15.881250381469727,-36.63750076293945
1694682696754885000,20.908885009765626,24.881250381469727,-15.80625057220459,-36.73125076293945
1694682696774867700,20.92886767578125,24.881250381469727,-15.43125057220459,-36.41250228881836
1694682696794860800,20.94886083984375,24.881250381469727,-15.43125057220459,-36.618751525878906
1694682696814862000,20.968862060546876,25.293750762939453,-15.787500381469727,-36.41250228881836
1694682696834859800,20.98885986328125,25.293750762939453,-15.693750381469727,-36.618751525878906
1694682696854819300,21.0088193359375,25.181251525878906,-15.61875057220459,-36.82500076293945
1694682696874825700,21.02882568359375,25.087501525878906,-15.43125057220459,-36.712501525878906
1694682696894839300,21.04883935546875,24.881250381469727,-15.61875057220459,-36.63750076293945
1694682696914857500,21.068857421875,25.087501525878906,-15.693750381469727,-36.525001525878906
1694682696934867700,21.08886767578125,24.993751525878906,-15.787500381469727,-36.431251525878906
1694682696954829800,21.108829833984377,24.787500381469727,-15.71250057220459,-36.63750076293945
1694682696974837500,21.12883740234375,25.293750762939453,-15.52500057220459,-36.41250228881836
1694682696994851300,21.148851318359377,24.993751525878906,-15.52500057220459,-36.41250228881836
1694682697014869200,21.168869140625,24.67500114440918,-15.80625057220459,-36.9375
1694682697034879500,21.18887939453125,24.787500381469727,-15.881250381469727,-36.525001525878906
1694682697054840800,21.2088408203125,25.087501525878906,-15.52500057220459,-36.22500228881836
1694682697074847700,21.22884765625,24.975000381469727,-15.693750381469727,-36.525001525878906
1694682697094860800,21.24886083984375,25.293750762939453,-15.52500057220459,-36.618751525878906
1694682697114859300,21.268859375,24.787500381469727,-15.52500057220459,-36.618751525878906
1694682697134854400,21.2888544921875,24.562501907348633,-15.52500057220459,-36.431251525878906
1694682697154869000,21.308868896484373,24.67500114440918,-15.881250381469727,-36.9375
1694682697174853000,21.32885302734375,24.975000381469727,-15.61875057220459,-36.73125076293945
1694682697194854100,21.348854248046877,24.787500381469727,-15.71250057220459,-36.63750076293945
1694682697214851800,21.368851806640624,25.087501525878906,-15.543750762939453,-37.01250076293945
1694682697234857500,21.388857421875,24.881250381469727,-15.80625057220459,-36.82500076293945
1694682697254816300,21.408816162109375,25.181251525878906,-15.61875057220459,-36.525001525878906
1694682697274822000,21.42882177734375,24.67500114440918,-15.693750381469727,-36.22500228881836
1694682697294846200,21.44884619140625,24.67500114440918,-15.693750381469727,-36.431251525878906
1694682697314861300,21.468861328125,25.181251525878906,-15.881250381469727,-36.431251525878906
1694682697334869000,21.488868896484377,25.293750762939453,-15.43125057220459,-36.712501525878906
1694682697354823000,21.508822998046874,24.881250381469727,-15.975000381469727,-36.525001525878906
1694682697374833700,21.528833740234376,24.562501907348633,-15.71250057220459,-36.525001525878906
1694682697394847000,21.548846923828126,25.087501525878906,-15.71250057220459,-36.73125076293945
1694682697414864400,21.568864501953126,25.406251907348633,-15.787500381469727,-36.525001525878906
1694682697434865700,21.58886572265625,24.76875114440918,-15.61875057220459,-36.82500076293945
1694682697454820600,21.608820556640627,24.76875114440918,-15.61875057220459,-36.82500076293945
1694682697474823000,21.628822998046875,24.67500114440918,-15.52500057220459,-36.63750076293945
1694682697494833000,21.6488330078125,24.787500381469727,-15.43125057220459,-36.41250228881836
1694682697514838000,21.668838134765625,24.468751907348633,-15.52500057220459,-36.525001525878906
1694682697534844700,21.6888447265625,24.67500114440918,-15.61875057220459,-36.63750076293945
1694682697554815500,21.7088154296875,24.562501907348633,-15.693750381469727,-36.337501525878906
1694682697574830300,21.728830322265626,24.67500114440918,-15.61875057220459,-36.431251525878906
1694682697594849800,21.748849853515626,24.881250381469727,-15.71250057220459,-36.82500076293945
1694682697614860800,21.76886083984375,24.787500381469727,-15.61875057220459,-36.525001525878906
1694682697634865000,21.788864990234377,24.86250114440918,-15.71250057220459,-37.03125
1694682697654835700,21.808835693359374,24.787500381469727,-15.52500057220459,-36.525001525878906
1694682697674847200,21.82884716796875,24.562501907348633,-15.71250057220459,-36.73125076293945
1694682697694856000,21.84885595703125,24.468751907348633,-15.61875057220459,-36.337501525878906
1694682697714862800,21.86886279296875,24.67500114440918,-15.43125057220459,-36.618751525878906
1694682697734867500,21.888867431640627,24.881250381469727,-15.881250381469727,-36.73125076293945
1694682697754819600,21.908819580078124,25.181251525878906,-15.71250057220459,-36.712501525878906
1694682697774818000,21.928818115234375,25.087501525878906,-15.693750381469727,-36.31875228881836
1694682697794824400,21.948824462890624,24.67500114440918,-15.71250057220459,-36.63750076293945
1694682697814837500,21.96883740234375,24.787500381469727,-15.61875057220459,-36.525001525878906
1694682697834843600,21.98884375,24.562501907348633,-15.52500057220459,-36.63750076293945
1694682697854810600,22.008810546875,25.087501525878906,-15.881250381469727,-36.82500076293945
1694682697874822400,22.028822509765625,25.087501525878906,-15.956250190734863,-36.22500228881836
1694682697894839600,22.048839599609376,24.881250381469727,-15.693750381469727,-36.431251525878906
1694682697914860000,22.068860107421877,24.787500381469727,-15.881250381469727,-36.337501525878906
1694682697934871600,22.08887158203125,24.881250381469727,-15.52500057220459,-36.22500228881836
1694682697954834200,22.108834228515626,24.67500114440918,-15.61875057220459,-36.82500076293945
1694682697974841600,22.128841552734375,24.881250381469727,-15.61875057220459,-36.41250228881836
1694682697994855200,22.148855224609374,24.787500381469727,-15.61875057220459,-36.431251525878906
1694682698014872600,22.16887255859375,25.181251525878906,-15.52500057220459,-36.712501525878906
1694682698034882000,22.188882080078123,24.787500381469727,-15.52500057220459,-36.618751525878906
1694682698054842600,22.208842529296874,24.975000381469727,-15.52500057220459,-36.82500076293945
1694682698074849300,22.228849365234375,24.881250381469727,-15.52500057220459,-36.41250228881836
1694682698094861800,22.24886181640625,25.181251525878906,-15.881250381469727,-36.63750076293945
1694682698114860800,22.26886083984375,24.67500114440918,-15.52500057220459,-36.41250228881836
1694682698134854700,22.288854736328126,24.76875114440918,-15.43125057220459,-36.712501525878906
1694682698154871600,22.30887158203125,24.67500114440918,-15.43125057220459,-36.712501525878906
1694682698174855700,22.328855712890626,25.087501525878906,-15.61875057220459,-36.618751525878906
1694682698194857000,22.34885693359375,24.993751525878906,-15.61875057220459,-36.31875228881836
1694682698214865200,22.368865234375,24.881250381469727,-15.693750381469727,-36.337501525878906
1694682698234860300,22.3888603515625,24.787500381469727,-15.52500057220459,-36.41250228881836
1694682698254818000,22.408818115234375,24.562501907348633,-15.975000381469727,-36.431251525878906
1694682698274822700,22.42882275390625,24.993751525878906,-15.61875057220459,-36.22500228881836
1694682698294846500,22.448846435546876,24.76875114440918,-15.61875057220459,-36.73125076293945
1694682698314861000,22.468861083984375,24.881250381469727,-15.52500057220459,-36.41250228881836
1694682698334868200,22.4888681640625,25.181251525878906,-15.61875057220459,-36.618751525878906
1694682698354820400,22.5088203125,24.67500114440918,-15.975000381469727,-36.431251525878906
1694682698374831600,22.52883154296875,25.181251525878906,-15.61875057220459,-36.712501525878906
1694682698394845200,22.54884521484375,24.787500381469727,-15.61875057220459,-36.31875228881836
1694682698414863000,22.568863037109374,25.087501525878906,-15.43125057220459,-36.525001525878906
1694682698434864600,22.58886474609375,24.975000381469727,-15.52500057220459,-36.82500076293945
1694682698454820600,22.608820556640627,24.881250381469727,-15.71250057220459,-36.73125076293945
1694682698474823000,22.628822998046875,24.562501907348633,-15.262500762939453,-36.525001525878906
1694682698494833000,22.6488330078125,24.67500114440918,-15.862500190734863,-36.22500228881836
1694682698514837000,22.6688369140625,24.562501907348633,-15.262500762939453,-36.618751525878906
1694682698534844200,22.68884423828125,24.993751525878906,-15.693750381469727,-36.41250228881836
1694682698554815200,22.708815185546875,24.76875114440918,-15.52500057220459,-36.82500076293945
1694682698574830300,22.728830322265626,25.200000762939453,-15.693750381469727,-36.31875228881836
1694682698594849800,22.748849853515626,24.67500114440918,-15.356250762939453,-36.41250228881836
1694682698614860800,22.76886083984375,24.881250381469727,-15.52500057220459,-36.712501525878906
1694682698634857500,22.788857421875,24.76875114440918,-15.80625057220459,-36.9375
1694682698654818800,22.80881884765625,24.468751907348633,-15.52500057220459,-36.525001525878906
1694682698674834400,22.82883447265625,24.881250381469727,-15.787500381469727,-36.525001525878906
1694682698694847500,22.848847412109375,24.468751907348633,-15.356250762939453,-36.712501525878906
1694682698714857500,22.868857421875,24.67500114440918,-15.52500057220459,-36.41250228881836
1694682698734864100,22.888864013671874,24.67500114440918,-15.61875057220459,-36.73125076293945
1694682698754818600,22.908818603515623,24.881250381469727,-15.52500057220459,-36.41250228881836
1694682698774817500,22.928817626953126,24.468751907348633,-15.61875057220459,-36.63750076293945
1694682698794825700,22.94882568359375,24.975000381469727,-15.356250762939453,-36.82500076293945
1694682698814839300,22.96883935546875,24.993751525878906,-15.956250190734863,-36.337501525878906
1694682698834851300,22.988851318359377,25.200000762939453,-15.693750381469727,-36.22500228881836
1694682698854873300,23.008873291015625,25.293750762939453,-15.43125057220459,-36.20625305175781
1694682698874870300,23.028870361328124,24.562501907348633,-15.52500057220459,-36.63750076293945
1694682698894874600,23.04887451171875,25.725000381469727,-15.862500190734863,-36.22500228881836
1694682698914884000,23.068884033203126,24.468751907348633,-15.71250057220459,-36.63750076293945
1694682698934875600,23.088875732421876,24.881250381469727,-15.356250762939453,-36.712501525878906
1694682698954834000,23.108833984375,24.468751907348633,-15.43125057220459,-36.73125076293945
1694682698974850000,23.12885009765625,25.181251525878906,-15.61875057220459,-36.618751525878906
1694682698994859500,23.148859619140627,24.86250114440918,-15.71250057220459,-37.125
1694682699014874000,23.1688740234375,24.468751907348633,-15.52500057220459,-36.73125076293945
1694682699034875400,23.18887548828125,24.67500114440918,-15.43125057220459,-36.41250228881836
1694682699054825000,23.208824951171874,24.975000381469727,-15.262500762939453,-36.91875076293945
1694682699074834700,23.228834716796875,24.881250381469727,-15.356250762939453,-36.618751525878906
1694682699094850600,23.2488505859375,24.356250762939453,-15.71250057220459,-36.525001525878906
1694682699114851300,23.268851318359374,24.150001525878906,-15.450000762939453,-36.73125076293945
1694682699134848000,23.288847900390625,24.056251525878906,-15.450000762939453,-36.82500076293945
1694682699154864000,23.308864013671876,25.293750762939453,-15.862500190734863,-36.22500228881836
1694682699174849500,23.328849609375,24.881250381469727,-15.262500762939453,-36.82500076293945
1694682699194853000,23.34885302734375,24.262500762939453,-15.356250762939453,-36.525001525878906
1694682699214863000,23.368863037109374,24.881250381469727,-15.262500762939453,-36.618751525878906
1694682699234866700,23.38886669921875,24.67500114440918,-15.262500762939453,-36.41250228881836
1694682699254823700,23.40882373046875,25.087501525878906,-15.356250762939453,-36.41250228881836
1694682699274827500,23.42882763671875,24.881250381469727,-15.43125057220459,-36.525001525878906
1694682699294850000,23.44885009765625,25.087501525878906,-15.693750381469727,-36.41250228881836
1694682699314863900,23.46886376953125,24.562501907348633,-15.61875057220459,-36.63750076293945
1694682699334870300,23.488870361328125,24.562501907348633,-15.093750953674316,-36.618751525878906
1694682699354822000,23.50882177734375,24.67500114440918,-16.068750381469727,-36.73125076293945
1694682699374832600,23.52883251953125,24.881250381469727,-15.71250057220459,-36.63750076293945
1694682699394845700,23.548845703125,24.881250381469727,-15.693750381469727,-36.337501525878906
1694682699414863400,23.56886328125,24.76875114440918,-16.23750114440918,-36.54375076293945
1694682699434865200,23.588865234375,24.881250381469727,-15.52500057220459,-36.618751525878906
1694682699454820000,23.608820068359375,24.975000381469727,-15.881250381469727,-36.525001525878906
1694682699474822400,23.628822509765627,24.67500114440918,-15.975000381469727,-36.73125076293945
1694682699494832600,23.64883251953125,25.181251525878906,-15.543750762939453,-36.91875076293945
1694682699514837800,23.668837646484373,24.86250114440918,-15.80625057220459,-36.9375
1694682699534844700,23.6888447265625,25.61250114440918,-16.05000114440918,-36.431251525878906
1694682699554815700,23.708815673828123,24.86250114440918,-15.637500762939453,-36.9375
1694682699574830600,23.72883056640625,25.293750762939453,-15.52500057220459,-36.618751525878906
1694682699594850000,23.74885009765625,24.787500381469727,-16.05000114440918,-36.13125228881836
1694682699614861000,23.768861083984376,24.975000381469727,-15.61875057220459,-36.618751525878906
1694682699634857500,23.788857421875,24.881250381469727,-15.61875057220459,-36.63750076293945
1694682699654818800,23.80881884765625,24.356250762939453,-15.80625057220459,-36.73125076293945
1694682699674834400,23.82883447265625,25.181251525878906,-15.61875057220459,-36.618751525878906
1694682699694850800,23.848850830078124,25.087501525878906,-15.71250057220459,-36.73125076293945
1694682699714852400,23.868852294921876,24.975000381469727,-15.71250057220459,-36.63750076293945
1694682699734860300,23.8888603515625,24.76875114440918,-15.80625057220459,-36.73125076293945
1694682699754876700,23.908876708984376,24.76875114440918,-15.80625057220459,-36.73125076293945
1694682699774862300,23.9288623046875,24.787500381469727,-15.693750381469727,-36.431251525878906
1694682699794857500,23.948857421875,25.200000762939453,-15.61875057220459,-36.31875228881836
1694682699814868000,23.968867919921873,24.76875114440918,-15.52500057220459,-36.82500076293945
1694682699834868200,23.9888681640625,24.67500114440918,-15.693750381469727,-36.525001525878906
1694682699854826200,24.008826171875,25.406251907348633,-16.14375114440918,-36.431251525878906
1694682699874831400,24.028831298828123,24.86250114440918,-15.637500762939453,-37.03125
1694682699894843400,24.048843505859374,24.975000381469727,-15.61875057220459,-36.525001525878906
1694682699914860800,24.06886083984375,24.562501907348633,-15.61875057220459,-36.63750076293945
1694682699934858800,24.088858642578124,24.76875114440918,-15.450000762939453,-36.9375
1694682699954822700,24.10882275390625,24.67500114440918,-15.787500381469727,-36.22500228881836
1694682699974832000,24.12883203125,24.562501907348633,-15.71250057220459,-36.82500076293945
1694682699994847200,24.14884716796875,25.181251525878906,-15.61875057220459,-36.525001525878906
1694682700014866700,24.16886669921875,24.76875114440918,-15.71250057220459,-36.73125076293945
1694682700034859300,24.188859375,25.293750762939453,-15.52500057220459,-36.82500076293945
1694682700054820600,24.208820556640624,24.881250381469727,-15.956250190734863,-36.13125228881836
1694682700074833200,24.228833251953127,24.67500114440918,-15.693750381469727,-36.431251525878906
1694682700094844700,24.2488447265625,25.181251525878906,-15.71250057220459,-36.712501525878906
1694682700114848300,24.26884814453125,24.356250762939453,-15.71250057220459,-36.525001525878906
1694682700134847000,24.288846923828125,24.787500381469727,-15.356250762939453,-36.712501525878906
1694682700154863900,24.30886376953125,25.087501525878906,-15.52500057220459,-36.618751525878906
1694682700174850800,24.328850830078125,24.787500381469727,-15.52500057220459,-36.31875228881836
1694682700194854400,24.3488544921875,24.993751525878906,-16.05000114440918,-36.13125228881836
1694682700214864600,24.36886474609375,24.67500114440918,-15.33750057220459,-36.22500228881836
1694682700234868500,24.388868408203123,24.787500381469727,-15.262500762939453,-36.618751525878906
1694682700254825000,24.408824951171876,24.562501907348633,-15.71250057220459,-36.82500076293945
1694682700274828500,24.42882861328125,25.087501525878906,-15.693750381469727,-36.41250228881836
1694682700294850800,24.448850830078126,24.76875114440918,-15.881250381469727,-36.63750076293945
1694682700314864400,24.468864501953124,24.881250381469727,-15.693750381469727,-36.431251525878906
1694682700334870800,24.488870849609373,25.087501525878906,-15.61875057220459,-36.41250228881836
1694682700354822700,24.50882275390625,24.562501907348633,-15.43125057220459,-36.41250228881836
1694682700374837500,24.52883740234375,24.993751525878906,-15.52500057220459,-36.525001525878906
1694682700394849300,24.548849365234375,25.087501525878906,-15.52500057220459,-36.712501525878906
1694682700414866000,24.568865966796874,24.881250381469727,-15.693750381469727,-36.525001525878906
1694682700434867200,24.5888671875,24.468751907348633,-15.881250381469727,-36.431251525878906
1694682700454822100,24.608822265625,24.356250762939453,-15.52500057220459,-36.63750076293945
1694682700474830300,24.628830322265625,24.67500114440918,-15.543750762939453,-36.82500076293945
1694682700494827000,24.648826904296875,24.881250381469727,-15.71250057220459,-36.63750076293945
1694682700514833000,24.6688330078125,24.356250762939453,-15.356250762939453,-36.41250228881836
1694682700534840800,24.6888408203125,24.993751525878906,-15.52500057220459,-36.525001525878906
1694682700554812700,24.708812744140626,25.181251525878906,-15.61875057220459,-36.712501525878906
1694682700574828500,24.72882861328125,24.67500114440918,-15.52500057220459,-36.63750076293945
1694682700594848500,24.7488486328125,24.975000381469727,-15.61875057220459,-36.618751525878906
1694682700614859800,24.76885986328125,24.356250762939453,-15.881250381469727,-36.337501525878906
1694682700634860300,24.7888603515625,24.056251525878906,-15.262500762939453,-36.82500076293945
1694682700654821400,24.8088212890625,25.293750762939453,-15.43125057220459,-36.50625228881836
1694682700674836500,24.82883642578125,24.975000381469727,-15.61875057220459,-36.618751525878906
1694682700694848500,24.8488486328125,24.787500381469727,-15.43125057220459,-36.525001525878906
1694682700714861600,24.868861572265626,24.76875114440918,-15.637500762939453,-36.9375
1694682700734859800,24.88885986328125,24.881250381469727,-15.61875057220459,-36.82500076293945
1694682700754876400,24.90887646484375,24.562501907348633,-15.543750762939453,-36.9375
1694682700774861800,24.92886181640625,24.67500114440918,-15.61875057220459,-36.73125076293945
1694682700794857200,24.948857177734375,25.087501525878906,-15.693750381469727,-36.525001525878906
1694682700814872000,24.9688720703125,25.200000762939453,-15.693750381469727,-36.01875305175781
1694682700834868000,24.988867919921876,24.881250381469727,-15.71250057220459,-36.82500076293945
1694682700854826000,25.008825927734375,24.67500114440918,-15.356250762939453,-36.82500076293945
1694682700874830800,25.028830810546875,24.356250762939453,-15.356250762939453,-36.9375
1694682700894843100,25.048843017578125,24.76875114440918,-15.71250057220459,-36.9375
1694682700914860300,25.0688603515625,24.975000381469727,-15.71250057220459,-36.9375
1694682700934858200,25.088858154296876,24.562501907348633,-15.543750762939453,-36.9375
1694682700954822400,25.108822509765623,24.356250762939453,-15.543750762939453,-36.9375
1694682700974831600,25.12883154296875,24.67500114440918,-15.450000762939453,-36.82500076293945
1694682700994847200,25.14884716796875,24.356250762939453,-15.71250057220459,-36.84375
1694682701014868500,25.168868408203124,24.67500114440918,-15.43125057220459,-36.618751525878906
1694682701034868000,25.188867919921876,24.656251907348633,-15.543750762939453,-37.125
1694682701054832400,25.208832275390623,23.943750381469727,-15.71250057220459,-36.73125076293945
1694682701074841900,25.228841796875,24.468751907348633,-15.187500953674316,-36.82500076293945
1694682701094864600,25.24886474609375,23.943750381469727,-15.543750762939453,-36.73125076293945
1694682701114862800,25.26886279296875,23.943750381469727,-15.375000953674316,-37.23750305175781
1694682701134856700,25.288856689453127,24.356250762939453,-15.450000762939453,-36.73125076293945
1694682701154872000,25.3088720703125,25.087501525878906,-15.093750953674316,-37.3125
1694682701174855400,25.32885546875,24.67500114440918,-15.543750762939453,-36.82500076293945
1694682701194857000,25.34885693359375,24.562501907348633,-15.543750762939453,-37.03125
1694682701214865200,25.368865234375,24.168750762939453,-15.43125057220459,-36.431251525878906
1694682701234867700,25.38886767578125,24.975000381469727,-15.468750953674316,-37.42500305175781
1694682701254823700,25.40882373046875,24.76875114440918,-15.356250762939453,-37.125
1694682701274827000,25.428826904296876,24.76875114440918,-15.450000762939453,-36.82500076293945
1694682701294849300,25.448849365234373,24.150001525878906,-15.356250762939453,-36.73125076293945
1694682701314862800,25.46886279296875,24.67500114440918,-15.43125057220459,-36.712501525878906
1694682701334869200,25.488869140625,24.468751907348633,-15.356250762939453,-36.9375
1694682701354825000,25.508824951171874,24.975000381469727,-15.71250057220459,-36.63750076293945
1694682701374831600,25.52883154296875,24.562501907348633,-15.187500953674316,-37.125
1694682701394844400,25.548844482421874,24.468751907348633,-15.52500057220459,-36.431251525878906
1694682701414867000,25.568866943359374,24.356250762939453,-15.61875057220459,-36.525001525878906
1694682701434867700,25.58886767578125,24.993751525878906,-15.52500057220459,-36.41250228881836
1694682701454822000,25.60882177734375,24.67500114440918,-15.787500381469727,-36.03750228881836
1694682701474835200,25.628835205078126,24.356250762939453,-15.356250762939453,-36.63750076293945
1694682701494846500,25.648846435546876,24.262500762939453,-15.71250057220459,-36.54375076293945
1694682701514847000,25.668846923828124,25.087501525878906,-15.450000762939453,-37.01250076293945
1694682701534850800,25.688850830078124,24.150001525878906,-15.52500057220459,-36.525001525878906
1694682701554819600,25.708819580078124,24.881250381469727,-15.71250057220459,-36.73125076293945
1694682701574832600,25.72883251953125,24.787500381469727,-15.693750381469727,-36.525001525878906
1694682701594850800,25.748850830078126,24.787500381469727,-15.61875057220459,-36.525001525878906
1694682701614860800,25.76886083984375,24.975000381469727,-15.61875057220459,-36.82500076293945
1694682701634857000,25.78885693359375,24.881250381469727,-15.262500762939453,-37.01250076293945
1694682701654817800,25.80881787109375,24.881250381469727,-15.787500381469727,-36.525001525878906
1694682701674835200,25.828835205078125,24.993751525878906,-15.43125057220459,-36.41250228881836
