time,seconds_elapsed,z,y,x
1697611886152485000,0.106485107421875,-50.962501525878906,6.731250286102295,-1.8375000953674316
1697611886172489700,0.12648974609375,-51.69375228881836,8.043750762939453,-2.325000047683716
1697611886192499500,0.14649951171875,-50.962501525878906,7.443750381469727,-1.5187500715255737
1697611886212521500,0.166521484375,-51.16875076293945,7.612500190734863,-1.818750023841858
1697611886232549000,0.186549072265625,-50.23125076293945,8.15625,-2.0812501907348633
1697611886252589300,0.20658935546875,-49.931251525878906,7.593750476837158,-2.90625
1697611886272620500,0.22662060546875,-49.95000076293945,8.02500057220459,-3.6187500953674316
1697611886292638700,0.246638671875,-50.56875228881836,8.737500190734863,-3.8062500953674316
1697611886312656400,0.266656494140625,-49.72500228881836,9.543750762939453,-3.356250047683716
1697611886332651800,0.28665185546875,-49.837501525878906,9.975000381469727,-4.050000190734863
1697611886352663600,0.30666357421875,-49.95000076293945,11.71875,-4.912500381469727
1697611886372666400,0.326666259765625,-49.125003814697266,11.96250057220459,-5.606250286102295
1697611886392662500,0.34666259765625,-49.743751525878906,12.937500953674316,-5.981250286102295
1697611886412647400,0.3666474609375,-49.33125305175781,12.393750190734863,-6.206250190734863
1697611886432643600,0.3866435546875,-50.493751525878906,12.99375057220459,-7.012500286102295
1697611886452640800,0.406640869140625,-49.33125305175781,13.200000762939453,-6.075000286102295
1697611886472645600,0.426645751953125,-49.125003814697266,13.200000762939453,-6.075000286102295
1697611886492627200,0.446627197265625,-48.60000228881836,13.74375057220459,-5.943750381469727
1697611886512621000,0.46662109375,-48.39375305175781,13.818750381469727,-6.131250381469727
1697611886532621800,0.486621826171875,-48.91875076293945,13.387500762939453,-5.662500381469727
1697611886552620800,0.506620849609375,-50.47500228881836,13.387500762939453,-5.681250095367432
1697611886572617200,0.5266171875,-49.61250305175781,13.162500381469727,-4.068750381469727
1697611886592615200,0.546615234375,-50.04375076293945,12.881250381469727,-4.6875
1697611886612620800,0.566620849609375,-49.743751525878906,12.768750190734863,-5.681250095367432
1697611886632621600,0.58662158203125,-49.53750228881836,12.768750190734863,-5.287500381469727
1697611886652629500,0.60662939453125,-49.63125228881836,13.068750381469727,-4.462500095367432
1697611886672642800,0.626642822265625,-49.312503814697266,12.43125057220459,-4.6875
1697611886692637400,0.646637451171875,-49.53750228881836,12.15000057220459,-5.493750095367432
1697611886712640000,0.666639892578125,-49.76250076293945,11.756250381469727,-6.731250286102295
1697611886732637700,0.6866376953125,-49.48125076293945,10.668750762939453,-7.856250286102295
1697611886752635400,0.706635498046875,-49.087501525878906,10.74375057220459,-8.662500381469727
1697611886772643800,0.726643798828125,-49.29375076293945,11.006250381469727,-9.05625057220459
1697611886792639200,0.74663916015625,-49.38750076293945,11.175000190734863,-8.86875057220459
1697611886812642800,0.766642822265625,-48.88125228881836,10.96875,-10.27500057220459
1697611886832623000,0.786623046875,-48.056251525878906,11.15625,-10.350000381469727
1697611886852614400,0.806614501953125,-48.07500076293945,11.30625057220459,-10.856250762939453
1697611886872626700,0.826626708984375,-48.48750305175781,12.281250953674316,-11.02500057220459
1697611886892610800,0.84661083984375,-48.375003814697266,12.637500762939453,-11.4375
1697611886912612900,0.86661279296875,-47.85000228881836,12.90000057220459,-11.21250057220459
1697611886932610600,0.886610595703125,-47.64375305175781,13.162500381469727,-11.40000057220459
1697611886952628000,0.9066279296875,-47.868751525878906,13.143750190734863,-11.90625
1697611886972637400,0.926637451171875,-47.15625,13.575000762939453,-13.106250762939453
1697611886992640500,0.946640625,-47.26875305175781,13.106250762939453,-13.518750190734863
1697611887012649500,0.9666494140625,-47.45625305175781,13.218750953674316,-12.918750762939453
1697611887032640500,0.986640625,-47.775001525878906,13.387500762939453,-12.80625057220459
1697611887052640500,1.006640625,-47.47500228881836,12.937500953674316,-13.612500190734863
1697611887072647200,1.026647216796875,-47.0625,13.443750381469727,-14.006250381469727
1697611887092641500,1.0466416015625,-47.28750228881836,13.162500381469727,-14.625000953674316
1697611887112639700,1.0666396484375,-47.26875305175781,13.706250190734863,-14.418750762939453
1697611887132634400,1.08663427734375,-46.85625076293945,13.706250190734863,-14.40000057220459
1697611887152637400,1.106637451171875,-47.0625,13.443750381469727,-14.606250762939453
1697611887172628000,1.1266279296875,-47.90625,13.875000953674316,-14.812500953674316
1697611887192617000,1.146616943359375,-48.22500228881836,13.950000762939453,-15.412500381469727
1697611887212616000,1.166615966796875,-46.875,13.312500953674316,-15.71250057220459
1697611887232612000,1.186612060546875,-46.25625228881836,13.687500953674316,-15.600000381469727
1697611887252624000,1.206623779296875,-46.35000228881836,14.30625057220459,-15.393750190734863
1697611887272629200,1.226629150390625,-46.462501525878906,13.687500953674316,-15.918750762939453
1697611887292629200,1.246629150390625,-46.14375305175781,14.21250057220459,-15.693750381469727
1697611887312636400,1.266636474609375,-46.16250228881836,13.668750762939453,-16.3125
1697611887332637700,1.2866376953125,-47.306251525878906,13.55625057220459,-16.931251525878906
1697611887352645600,1.306645751953125,-47.400001525878906,14.287500381469727,-16.21875
1697611887372647400,1.3266474609375,-46.38750076293945,13.74375057220459,-17.025001525878906
1697611887392644400,1.346644287109375,-46.38750076293945,13.031250953674316,-16.725000381469727
1697611887412648700,1.366648681640625,-47.212501525878906,12.656250953674316,-17.26875114440918
1697611887432632000,1.386632080078125,-47.53125,12.487500190734863,-16.96875
1697611887452630800,1.406630859375,-46.89375305175781,12.225000381469727,-16.96875
1697611887472637200,1.42663720703125,-47.118751525878906,11.512500762939453,-16.89375114440918
1697611887492619500,1.44661962890625,-47.75625228881836,10.856250762939453,-18.431251525878906
1697611887512613400,1.46661328125,-46.743751525878906,9.33750057220459,-19.162500381469727
1697611887532605200,1.486605224609375,-45.31875228881836,7.968750476837158,-20.793750762939453
1697611887552606200,1.506606201171875,-44.23125076293945,6.375000476837158,-24.262500762939453
1697611887572615700,1.52661572265625,-42.60000228881836,6.506250381469727,-26.250001907348633
1697611887592615000,1.546614990234375,-41.681251525878906,6.825000286102295,-27.843751907348633
1697611887612621800,1.566621826171875,-40.03125,9.543750762939453,-29.962501525878906
1697611887632623000,1.586623046875,-37.556251525878906,10.668750762939453,-31.106250762939453
1697611887652631300,1.60663134765625,-34.98750305175781,13.293750762939453,-33.31875228881836
1697611887672644600,1.62664453125,-32.47500228881836,15.768750190734863,-34.01250076293945
1697611887692639000,1.646638916015625,-28.556251525878906,19.181251525878906,-36.07500076293945
1697611887712641300,1.666641357421875,-26.26875114440918,20.700000762939453,-36.31875228881836
1697611887732639000,1.686638916015625,-22.631250381469727,22.631250381469727,-37.51875305175781
1697611887752636700,1.70663671875,-20.137500762939453,24.337501525878906,-37.931251525878906
1697611887772633300,1.72663330078125,-18.243751525878906,25.500001907348633,-37.57500076293945
1697611887792631300,1.74663134765625,-15.937500953674316,27.656251907348633,-36.97500228881836
1697611887812637200,1.76663720703125,-14.981250762939453,28.631250381469727,-36.63750076293945
1697611887832618500,1.786618408203125,-13.83750057220459,30.356250762939453,-35.868751525878906
1697611887852612000,1.806612060546875,-13.612500190734863,31.42500114440918,-35.51250076293945
1697611887872614400,1.826614501953125,-13.481250762939453,32.51250076293945,-34.38750076293945
1697611887892600800,1.846600830078125,-12.450000762939453,32.17500305175781,-34.368751525878906
1697611887912599300,1.866599365234375,-13.593750953674316,32.70000076293945,-34.275001525878906
1697611887932601000,1.88660107421875,-13.068750381469727,32.53125,-33.86250305175781
1697611887952621600,1.90662158203125,-12.43125057220459,32.53125,-33.95625305175781
1697611887972633900,1.9266337890625,-13.068750381469727,32.70000076293945,-34.06875228881836
1697611887992638700,1.946638671875,-10.08750057220459,31.556251525878906,-34.10625076293945
1697611888012649200,1.966649169921875,-10.08750057220459,32.08125305175781,-34.181251525878906
1697611888032641300,1.986641357421875,-9.768750190734863,31.743751525878906,-33.58125305175781
1697611888052641500,2.0066416015625,-9.75,32.28750228881836,-33.26250076293945
1697611888072648700,2.026648681640625,-9.33750057220459,32.28750228881836,-33.26250076293945
1697611888092631600,2.046631591796875,-8.8125,32.45625305175781,-33.5625
1697611888112638700,2.066638671875,-7.256250381469727,32.025001525878906,-33.45000076293945
1697611888132634000,2.086634033203125,-5.71875,31.312501907348633,-33.63750076293945
1697611888152637700,2.1066376953125,-5.193750381469727,30.150001525878906,-33.97500228881836
1697611888172628700,2.126628662109375,-4.893750190734863,30.412500381469727,-33.95625305175781
1697611888192618200,2.1466181640625,-3.9562501907348633,30.243751525878906,-34.14375305175781
1697611888212626000,2.1666259765625,-3.543750047683716,29.437501907348633,-34.6875
1697611888232619000,2.186618896484375,-3.656250238418579,29.437501907348633,-34.275001525878906
1697611888252621600,2.20662158203125,-1.9875000715255737,29.793750762939453,-34.33125305175781
1697611888272627000,2.226626953125,-1.6687500476837158,29.981250762939453,-34.03125
1697611888292627200,2.246627197265625,-1.1437500715255737,30.787500381469727,-33.806251525878906
1697611888312634600,2.266634521484375,-1.256250023841858,30.525001525878906,-33.91875076293945
1697611888332636200,2.28663623046875,-0.8250000476837158,30.806251525878906,-33.69375228881836
1697611888352644400,2.306644287109375,-0.8250000476837158,31.593751907348633,-33.46875
1697611888372646700,2.326646728515625,-1.0125000476837158,31.968751907348633,-33.056251525878906
1697611888392632300,2.34663232421875,-1.1062500476837158,32.71875,-31.61250114440918
1697611888412639700,2.3666396484375,-1.162500023841858,33.993751525878906,-29.962501525878906
1697611888432631800,2.3866318359375,-1.5562500953674316,37.66875076293945,-28.368751525878906
1697611888452631300,2.40663134765625,-3.093750238418579,38.306251525878906,-27.356250762939453
1697611888472627000,2.426626953125,-4.59375,40.06875228881836,-24.600000381469727
1697611888492619800,2.446619873046875,-5.006250381469727,40.42500305175781,-24.281251907348633
1697611888512616200,2.4666162109375,-4.78125,40.78125,-23.887500762939453
1697611888532607200,2.486607177734375,-4.481250286102295,41.13750076293945,-23.756250381469727
1697611888552627000,2.506626953125,-3.637500047683716,41.15625,-23.55000114440918
1697611888572631300,2.52663134765625,-2.8312501907348633,41.47500228881836,-24.731250762939453
1697611888592626400,2.54662646484375,-2.71875,41.306251525878906,-24.543750762939453
1697611888612629800,2.566629638671875,-3.2437500953674316,41.38125228881836,-24.750001907348633
1697611888632628000,2.5866279296875,-3.543750047683716,41.83125305175781,-24.843751907348633
1697611888652634000,2.606634033203125,-3.543750047683716,42.46875,-24.01875114440918
1697611888672634600,2.626634521484375,-3.1125001907348633,42.67500305175781,-23.287500381469727
1697611888692630500,2.646630615234375,-3.6187500953674316,43.14375305175781,-22.181251525878906
1697611888712634600,2.666634521484375,-3.3937501907348633,43.70625305175781,-21.243751525878906
1697611888732633900,2.6866337890625,-3.6000001430511475,44.38125228881836,-21.637500762939453
1697611888752625400,2.70662548828125,-3.918750047683716,44.13750076293945,-21.65625
1697611888772624100,2.7266240234375,-3.3937501907348633,43.70625305175781,-21.056251525878906
1697611888792617700,2.74661767578125,-2.9625000953674316,43.80000305175781,-20.64375114440918
1697611888812620300,2.766620361328125,-3.0562500953674316,43.63125228881836,-20.34375
1697611888832618000,2.786617919921875,-2.512500047683716,45.1875,-18.67500114440918
1697611888852612400,2.8066123046875,-3.0187501907348633,45.806251525878906,-18.356250762939453
1697611888872615200,2.826615234375,-3.0375001430511475,46.33125305175781,-18.75
1697611888892613600,2.846613525390625,-0.7125000357627869,47.60625076293945,-17.775001525878906
1697611888912620300,2.866620361328125,-0.375,48.993751525878906,-15.918750762939453
1697611888932621600,2.88662158203125,0.07500000298023224,49.593753814697266,-13.256250381469727
1697611888952629200,2.906629150390625,-1.6500000953674316,50.32500076293945,-11.456250190734863
1697611888972632800,2.9266328125,-1.0875000953674316,50.062503814697266,-8.02500057220459
1697611888992629800,2.946629638671875,-1.1437500715255737,51.01875305175781,-5.775000095367432
1697611889012634600,2.966634521484375,-0.8250000476837158,50.92500305175781,-5.568750381469727
1697611889032633000,2.986633056640625,-0.8250000476837158,51.30000305175781,-4.856250286102295
1697611889052628700,3.006628662109375,0,51.11250305175781,-5.15625
1697611889072621000,3.02662109375,-0.8250000476837158,51.281253814697266,-5.362500190734863
1697611889092621800,3.046621826171875,0.20625001192092896,50.94375228881836,-5.34375
1697611889112618800,3.06661865234375,-0.20625001192092896,51.656253814697266,-4.837500095367432
1697611889132612000,3.086612060546875,0.09375,50.681251525878906,-4.856250286102295
1697611889152615000,3.106614990234375,-0.09375,50.962501525878906,-4.556250095367432
1697611889172613000,3.126613037109375,-0.09375,51.056251525878906,-4.556250095367432
1697611889192611300,3.146611328125,0.6375000476837158,50.962501525878906,-4.537500381469727
1697611889212614700,3.16661474609375,0.5250000357627869,50.70000076293945,-4.237500190734863
1697611889232624000,3.1866240234375,0.6375000476837158,50.26875305175781,-4.256250381469727
1697611889252631000,3.206631103515625,1.03125,50.70000076293945,-4.537500381469727
1697611889272628200,3.226628173828125,0,50.26875305175781,-4.256250381469727
1697611889292632600,3.246632568359375,0.4125000238418579,50.51250076293945,-4.256250381469727
1697611889312632300,3.26663232421875,1.0500000715255737,50.45625305175781,-3.937500238418579
1697611889332627700,3.286627685546875,1.256250023841858,50.60625076293945,-4.331250190734863
1697611889352631600,3.306631591796875,0.4125000238418579,50.343753814697266,-4.368750095367432
1697611889372629800,3.326629638671875,0.8437500596046448,50.625003814697266,-4.143750190734863
1697611889392624000,3.3466240234375,1.256250023841858,50.531253814697266,-3.937500238418579
1697611889412615200,3.366615234375,0.6375000476837158,50.51250076293945,-4.350000381469727
1697611889432619000,3.386618896484375,0.8437500596046448,50.88750076293945,-4.03125
1697611889452626400,3.40662646484375,1.5750000476837158,50.88750076293945,-3.825000047683716
1697611889472629200,3.426629150390625,1.256250023841858,50.531253814697266,-3.937500238418579
1697611889492627000,3.446626953125,1.1437500715255737,50.868751525878906,-4.631250381469727
1697611889512631600,3.466631591796875,1.3687500953674316,50.79375076293945,-4.03125
1697611889532633000,3.486633056640625,0.9375000596046448,50.88750076293945,-4.331250190734863
1697611889552628500,3.50662841796875,1.4625000953674316,50.531253814697266,-3.825000047683716
1697611889572636200,3.52663623046875,1.5562500953674316,50.625003814697266,-4.237500190734863
1697611889592633000,3.546633056640625,0.8437500596046448,50.79375076293945,-3.937500238418579
1697611889612627200,3.566627197265625,1.3687500953674316,51.07500076293945,-4.012500286102295
1697611889632630000,3.586630126953125,1.8750001192092896,50.812503814697266,-3.825000047683716
1697611889652627500,3.60662744140625,1.7812501192092896,50.718753814697266,-4.012500286102295
1697611889672621800,3.626621826171875,2.0812501907348633,50.531253814697266,-3.918750047683716
1697611889692624600,3.646624755859375,1.9875000715255737,50.718753814697266,-3.918750047683716
1697611889712622800,3.666622802734375,1.4625000953674316,50.812503814697266,-3.6187500953674316
1697611889732617200,3.6866171875,1.8937500715255737,50.625003814697266,-3.6187500953674316
1697611889752621300,3.706621337890625,0.8437500596046448,50.718753814697266,-4.143750190734863
1697611889772621600,3.72662158203125,1.0500000715255737,50.718753814697266,-3.637500047683716
1697611889792628200,3.746628173828125,1.4625000953674316,50.98125076293945,-4.012500286102295
1697611889812628700,3.766628662109375,1.6875001192092896,50.531253814697266,-3.731250047683716
1697611889832625200,3.786625244140625,1.6687500476837158,50.28750228881836,-3.731250047683716
1697611889852618200,3.8066181640625,1.7812501192092896,50.88750076293945,-4.125
1697611889872619800,3.826619873046875,1.8750001192092896,50.718753814697266,-4.012500286102295
1697611889892617500,3.846617431640625,1.6875001192092896,50.531253814697266,-3.731250047683716
1697611889912622300,3.866622314453125,0.8437500596046448,50.70000076293945,-4.237500190734863
1697611889932622800,3.886622802734375,1.3687500953674316,50.718753814697266,-3.5250000953674316
1697611889952629800,3.906629638671875,1.8750001192092896,50.625003814697266,-3.7125000953674316
1697611889972631600,3.926631591796875,2.1937501430511475,50.45625305175781,-3.4125001430511475
1697611889992628700,3.946628662109375,2.1000001430511475,51.187503814697266,-3.2062501907348633
1697611890012633300,3.96663330078125,1.6687500476837158,50.625003814697266,-3.825000047683716
1697611890032632300,3.98663232421875,1.6875001192092896,50.906253814697266,-3.5250000953674316
1697611890052627700,4.006627685546875,1.8750001192092896,51.243751525878906,-4.012500286102295
1697611890072619800,4.026619873046875,1.7812501192092896,50.79375076293945,-4.012500286102295
1697611890092620800,4.046620849609375,1.6687500476837158,50.26875305175781,-4.03125
1697611890112620300,4.066620361328125,1.8750001192092896,50.00625228881836,-3.731250047683716
1697611890132613600,4.086613525390625,2.1937501430511475,50.64375305175781,-3.3187501430511475
1697611890152616200,4.1066162109375,2.0812501907348633,50.55000305175781,-3.6187500953674316
1697611890172615000,4.126614990234375,1.8750001192092896,50.625003814697266,-3.7125000953674316
1697611890192609000,4.146609130859375,1.1437500715255737,50.343753814697266,-4.03125
1697611890212611800,4.16661181640625,1.256250023841858,50.51250076293945,-4.331250190734863
1697611890232621800,4.186621826171875,2.1000001430511475,50.73750305175781,-3.5062501430511475
1697611890252625200,4.206625244140625,2.1937501430511475,50.64375305175781,-3.4125001430511475
1697611890272624000,4.2266240234375,1.6875001192092896,50.38125228881836,-3.2250001430511475
1697611890292630300,4.24663037109375,2.3062500953674316,50.64375305175781,-3.6187500953674316
1697611890312630000,4.266630126953125,2.1000001430511475,50.118751525878906,-3.1312501430511475
1697611890332626000,4.2866259765625,1.6875001192092896,50.55000305175781,-3.5250000953674316
1697611890352631800,4.3066318359375,1.6687500476837158,50.17500305175781,-3.937500238418579
1697611890372630300,4.32663037109375,1.6875001192092896,50.55000305175781,-3.5250000953674316
1697611890392624600,4.346624755859375,1.6875001192092896,50.625003814697266,-3.731250047683716
1697611890412617000,4.366616943359375,1.4625000953674316,50.718753814697266,-3.937500238418579
1697611890432617700,4.38661767578125,1.7812501192092896,50.36250305175781,-3.5250000953674316
1697611890452626700,4.406626708984375,2.625,50.47500228881836,-3.3187501430511475
1697611890472629200,4.426629150390625,1.8750001192092896,50.10000228881836,-3.843750238418579
1697611890492626400,4.44662646484375,2.1937501430511475,50.28750228881836,-3.5250000953674316
1697611890512620500,4.46662060546875,2.1937501430511475,50.19375228881836,-3.731250047683716
1697611890532623400,4.486623291015625,2.0812501907348633,50.45625305175781,-3.6187500953674316
1697611890552621300,4.506621337890625,1.5750000476837158,50.718753814697266,-4.125
1697611890572627500,4.52662744140625,1.8937500715255737,50.812503814697266,-3.7125000953674316
1697611890592629000,4.54662890625,1.8937500715255737,50.906253814697266,-3.2062501907348633
1697611890612625000,4.566625,1.5750000476837158,50.45625305175781,-3.825000047683716
1697611890632628000,4.5866279296875,1.4625000953674316,50.812503814697266,-3.6187500953674316
1697611890652626700,4.606626708984375,1.4625000953674316,50.88750076293945,-3.918750047683716
1697611890672621800,4.626621826171875,1.1437500715255737,50.45625305175781,-3.937500238418579
1697611890692625000,4.646625,1.7625000476837158,50.531253814697266,-4.125
1697611890712623600,4.66662353515625,1.0500000715255737,50.812503814697266,-3.731250047683716
1697611890732621000,4.68662109375,1.5750000476837158,50.45625305175781,-4.03125
1697611890752613000,4.706613037109375,1.7812501192092896,50.812503814697266,-3.6187500953674316
1697611890772614000,4.72661376953125,2.3062500953674316,50.45625305175781,-3.4125001430511475
1697611890792610300,4.7466103515625,1.8750001192092896,50.531253814697266,-3.7125000953674316
1697611890812615700,4.76661572265625,1.9875000715255737,50.437503814697266,-4.125
1697611890832615700,4.78661572265625,1.4625000953674316,50.79375076293945,-3.937500238418579
1697611890852622800,4.806622802734375,1.7812501192092896,50.718753814697266,-3.825000047683716
1697611890872626200,4.826626220703125,1.1437500715255737,50.88750076293945,-4.03125
1697611890892623000,4.846623046875,1.256250023841858,50.60625076293945,-4.443750381469727
1697611890912627200,4.866627197265625,1.6875001192092896,50.906253814697266,-3.2062501907348633
1697611890932629000,4.88662890625,2.1937501430511475,50.73750305175781,-3.5062501430511475
1697611890952635100,4.90663525390625,2.0812501907348633,50.55000305175781,-3.6187500953674316
1697611890972635600,4.9266357421875,2.0812501907348633,50.45625305175781,-4.03125
1697611890992631000,4.946631103515625,2.0812501907348633,50.118751525878906,-3.5250000953674316
1697611891012634400,4.96663427734375,1.7625000476837158,50.531253814697266,-4.237500190734863
1697611891032632600,4.986632568359375,1.9875000715255737,50.19375228881836,-3.637500047683716
1697611891052627500,5.00662744140625,2.1000001430511475,50.36250305175781,-3.4125001430511475
1697611891072619000,5.026618896484375,2.3062500953674316,50.45625305175781,-3.7125000953674316
1697611891092620500,5.04662060546875,2.0812501907348633,50.08125305175781,-4.03125
1697611891112619500,5.06661962890625,1.9875000715255737,50.025001525878906,-3.4312500953674316
1697611891132624600,5.086624755859375,2.1937501430511475,50.26875305175781,-4.03125
1697611891152627000,5.106626953125,2.1937501430511475,50.26875305175781,-4.03125
1697611891172622000,5.1266220703125,2.4000000953674316,50.531253814697266,-3.825000047683716
1697611891192625700,5.146625732421875,1.3687500953674316,50.531253814697266,-4.237500190734863
1697611891212624100,5.1666240234375,2.512500047683716,50.36250305175781,-3.5250000953674316
1697611891232630000,5.186630126953125,2.3062500953674316,50.19375228881836,-3.2250001430511475
1697611891252630500,5.206630615234375,2.0812501907348633,50.10000228881836,-3.843750238418579
1697611891272627000,5.226626953125,2.1937501430511475,50.28750228881836,-3.3187501430511475
1697611891292631000,5.246631103515625,2.9250001907348633,50.10000228881836,-3.7125000953674316
1697611891312630300,5.26663037109375,2.3062500953674316,50.28750228881836,-3.4125001430511475
1697611891332625400,5.28662548828125,2.512500047683716,50.36250305175781,-3.825000047683716
1697611891352629000,5.30662890625,1.7625000476837158,50.00625228881836,-4.256250381469727
1697611891372628000,5.3266279296875,2.0812501907348633,50.36250305175781,-3.825000047683716
1697611891392622800,5.346622802734375,2.3062500953674316,50.36250305175781,-3.937500238418579
1697611891412626200,5.366626220703125,2.0812501907348633,50.531253814697266,-3.918750047683716
1697611891432624400,5.386624267578125,2.4000000953674316,50.19375228881836,-3.731250047683716
1697611891452634400,5.40663427734375,2.1937501430511475,50.17500305175781,-4.125
1697611891472635000,5.426634765625,1.4625000953674316,50.718753814697266,-4.237500190734863
1697611891492630500,5.446630615234375,1.7625000476837158,50.45625305175781,-4.03125
1697611891512622600,5.46662255859375,1.4625000953674316,50.531253814697266,-3.731250047683716
1697611891532623600,5.48662353515625,1.6687500476837158,50.437503814697266,-4.125
1697611891552621000,5.50662109375,1.8750001192092896,50.718753814697266,-3.7125000953674316
1697611891572626000,5.5266259765625,1.5750000476837158,50.531253814697266,-3.937500238418579
1697611891592626200,5.546626220703125,1.162500023841858,50.36250305175781,-3.637500047683716
1697611891612622600,5.56662255859375,1.9875000715255737,50.531253814697266,-3.825000047683716
1697611891632626200,5.586626220703125,1.6687500476837158,50.625003814697266,-3.825000047683716
1697611891652625400,5.60662548828125,1.6687500476837158,50.26875305175781,-4.03125
1697611891672621000,5.62662109375,0.7312500476837158,50.17500305175781,-4.050000190734863
1697611891692624100,5.6466240234375,1.1437500715255737,49.91250228881836,-4.068750381469727
1697611891712623000,5.666623046875,1.256250023841858,50.08125305175781,-4.143750190734863
1697611891732618000,5.686617919921875,0.9375000596046448,50.26875305175781,-4.050000190734863
1697611891752610000,5.706610107421875,0.3187500238418579,49.91250228881836,-4.068750381469727
1697611891772611000,5.726611083984375,1.1437500715255737,50.17500305175781,-3.750000238418579
1697611891792619500,5.74661962890625,0.7312500476837158,50.531253814697266,-4.03125
1697611891812622800,5.766622802734375,-0.09375,50.51250076293945,-4.462500095367432
1697611891832621600,5.78662158203125,-0.8250000476837158,50.775001525878906,-4.368750095367432
1697611891852615700,5.80661572265625,-0.6187500357627869,50.51250076293945,-4.762500286102295
1697611891872608000,5.82660791015625,-1.3312500715255737,50.156253814697266,-4.59375
1697611891892614100,5.8466142578125,-1.1437500715255737,50.493751525878906,-4.875
1697611891912621800,5.866621826171875,-1.8562500476837158,50.156253814697266,-4.40625
1697611891932622300,5.886622314453125,-1.443750023841858,50.41875076293945,-4.987500190734863
1697611891952630000,5.906630126953125,-1.8750001192092896,49.968753814697266,-4.912500381469727
1697611891972631800,5.9266318359375,-1.6687500476837158,50.32500076293945,-4.893750190734863
1697611891992629000,5.94662890625,-2.90625,49.687503814697266,-5.137500286102295
1697611892012633600,5.966633544921875,-2.2875001430511475,49.968753814697266,-5.212500095367432
1697611892032632600,5.986632568359375,-2.4937500953674316,50.306251525878906,-5.212500095367432
1697611892052628000,6.0066279296875,-2.6812500953674316,50.23125076293945,-4.518750190734863
1697611892072620500,6.02662060546875,-2.4937500953674316,50.681251525878906,-4.78125
1697611892092622000,6.0466220703125,-2.4937500953674316,50.493751525878906,-4.800000190734863
1697611892112618800,6.06661865234375,-2.4750001430511475,50.493751525878906,-4.59375
1697611892132612900,6.08661279296875,-2.5875000953674316,50.51250076293945,-4.40625
1697611892152616200,6.1066162109375,-2.0625,50.51250076293945,-4.293750286102295
1697611892172614700,6.12661474609375,-2.1750001907348633,49.98750305175781,-4.200000286102295
1697611892192609000,6.146609130859375,-2.3812501430511475,50.062503814697266,-4.706250190734863
1697611892212611800,6.16661181640625,-2.4750001430511475,50.156253814697266,-3.9937500953674316
1697611892232621600,6.18662158203125,-2.5875000953674316,50.51250076293945,-4.40625
1697611892252625000,6.206625,-1.7437500953674316,50.343753814697266,-3.9750001430511475
1697611892272624000,6.2266240234375,-2.3812501430511475,50.41875076293945,-4.40625
1697611892292629800,6.246629638671875,-2.5875000953674316,50.681251525878906,-4.293750286102295
1697611892312630000,6.266630126953125,-3.825000047683716,50.51250076293945,-3.8062500953674316
1697611892332625700,6.286625732421875,-3.2062501907348633,50.51250076293945,-3.9000000953674316
1697611892352629500,6.30662939453125,-4.125,50.17500305175781,-3.6187500953674316
1697611892372628200,6.326628173828125,-5.268750190734863,50.08125305175781,-3.3375000953674316
1697611892392623600,6.34662353515625,-5.981250286102295,50.45625305175781,-2.4375
1697611892412616200,6.3666162109375,-6.937500476837158,50.00625228881836,-2.6625001430511475
1697611892432617000,6.386616943359375,-6.093750476837158,50.025001525878906,-2.043750047683716
1697611892452627500,6.40662744140625,-7.237500190734863,50.118751525878906,-1.9500000476837158
1697611892472629800,6.426629638671875,-7.743750095367432,49.837501525878906,-2.1750001907348633
1697611892492627000,6.446626953125,-6.918750286102295,49.687503814697266,-1.350000023841858
1697611892512621600,6.46662158203125,-7.537500381469727,49.57500076293945,-1.8750001192092896
1697611892532626700,6.486626708984375,-7.237500190734863,49.85625076293945,-1.6687500476837158
1697611892552623600,6.50662353515625,-6.600000381469727,50.025001525878906,-1.443750023841858
1697611892572628200,6.526628173828125,-6.093750476837158,50.28750228881836,-2.137500047683716
1697611892592628000,6.5466279296875,-5.268750190734863,50.45625305175781,-2.2125000953674316
1697611892612624000,6.566623779296875,-3.9937500953674316,50.64375305175781,-1.8937500715255737
1697611892632627200,6.586627197265625,-2.9625000953674316,50.47500228881836,-1.9875000715255737
1697611892652626000,6.6066259765625,-2.4562501907348633,50.64375305175781,-2.5687501430511475
1697611892672620800,6.626620849609375,-0.581250011920929,50.212501525878906,-2.4562501907348633
1697611892692624400,6.646624267578125,0.65625,50.306251525878906,-2.53125
1697611892712623600,6.66662353515625,2.418750047683716,50.400001525878906,-2.418750047683716
1697611892732619300,6.686619384765625,3.262500047683716,50.23125076293945,-2.1937501430511475
1697611892752612900,6.70661279296875,4.837500095367432,50.70000076293945,-1.6687500476837158
1697611892772613600,6.726613525390625,5.34375,50.343753814697266,-1.8562500476837158
1697611892792623000,6.746623046875,6.487500190734863,50.156253814697266,-2.0625
1697611892812625700,6.766625732421875,8.043750762939453,50.062503814697266,-2.231250047683716
1697611892832623000,6.786623046875,8.643750190734863,49.80000305175781,-2.6437501907348633
1697611892852616700,6.80661669921875,9.881250381469727,49.70625305175781,-3.1312501430511475
1697611892872607500,6.826607421875,10.40625,49.51875305175781,-3.731250047683716
1697611892892608500,6.8466083984375,11.943750381469727,49.23750305175781,-4.3125
1697611892912616200,6.8666162109375,12.131250381469727,49.10625076293945,-5.831250190734863
1697611892932618200,6.8866181640625,13.068750381469727,48.843753814697266,-5.737500190734863
1697611892952627200,6.906627197265625,14.40000057220459,48.656253814697266,-6.937500476837158
1697611892972629800,6.926629638671875,14.793750762939453,48.01875305175781,-7.743750095367432
1697611892992635100,6.94663525390625,16.762500762939453,47.64375305175781,-8.34375
1697611893012638700,6.966638671875,17.17500114440918,47.10000228881836,-9.05625057220459
1697611893032636700,6.98663671875,18.9375,46.48125076293945,-9.356250762939453
1697611893052631000,7.006631103515625,19.42500114440918,45.84375,-10.27500057220459
1697611893072622000,7.0266220703125,20.568750381469727,45.48750305175781,-10.668750762939453
1697611893092611000,7.046611083984375,22.21875,44.66250228881836,-11.475000381469727
1697611893112609800,7.06660986328125,22.61250114440918,44.306251525878906,-11.981250762939453
1697611893132624600,7.086624755859375,24.168750762939453,43.05000305175781,-12.693750381469727
1697611893152624400,7.106624267578125,24.881250381469727,42.60000228881836,-13.106250762939453
1697611893172621000,7.12662109375,25.70625114440918,41.775001525878906,-14.02500057220459
1697611893192625200,7.146625244140625,26.006250381469727,41.775001525878906,-14.325000762939453
1697611893212624000,7.166623779296875,27.356250762939453,41.15625,-14.737500190734863
1697611893232629800,7.186629638671875,27.243751525878906,40.875,-14.737500190734863
1697611893252631800,7.2066318359375,27.750001907348633,40.61250305175781,-15.24375057220459
1697611893272631300,7.22663134765625,27.337501525878906,40.40625,-15.862500190734863
1697611893292634400,7.24663427734375,27.412500381469727,40.48125076293945,-16.368751525878906
1697611893312632800,7.2666328125,27.731250762939453,39.76875305175781,-16.875
1697611893332629200,7.286629150390625,27.30000114440918,40.01250076293945,-17.587501525878906
1697611893352631000,7.306631103515625,27.39375114440918,39.91875076293945,-18.09375
1697611893372628700,7.326628662109375,27.187501907348633,40.16250228881836,-18.787500381469727
1697611893392623400,7.346623291015625,26.756250381469727,39.86250305175781,-19.51875114440918
1697611893412615200,7.366615234375,26.437501907348633,40.29375076293945,-20.512500762939453
1697611893432615700,7.38661572265625,25.80000114440918,39.58125305175781,-20.4375
1697611893452623600,7.40662353515625,25.368751525878906,39.806251525878906,-21.76875114440918
1697611893472626200,7.426626220703125,25.14375114440918,39.806251525878906,-22.256250381469727
1697611893492624000,7.446623779296875,25.05000114440918,39.88125228881836,-22.162500381469727
1697611893512618500,7.466618408203125,25.031251907348633,39.69375228881836,-22.98750114440918
1697611893532621300,7.486621337890625,24.412500381469727,39.97500228881836,-22.462501525878906
1697611893552620000,7.5066201171875,24.618751525878906,39.95625305175781,-22.762500762939453
1697611893572626000,7.5266259765625,24.412500381469727,40.23750305175781,-22.762500762939453
1697611893592626200,7.546626220703125,24.825000762939453,39.78750228881836,-22.668750762939453
1697611893612622600,7.56662255859375,25.05000114440918,40.14375305175781,-22.256250381469727
1697611893632627500,7.58662744140625,25.687501907348633,40.25625228881836,-21.731250762939453
1697611893652626700,7.606626708984375,25.89375114440918,39.993751525878906,-21.84375
1697611893672622000,7.6266220703125,25.462501525878906,39.900001525878906,-21.75
1697611893692625200,7.646625244140625,26.100000381469727,40.181251525878906,-21.525001525878906
1697611893712623900,7.666623779296875,25.89375114440918,40.275001525878906,-21.337501525878906
1697611893732619000,7.686618896484375,26.100000381469727,40.25625228881836,-21.825000762939453
1697611893752621800,7.706621826171875,25.368751525878906,40.16250228881836,-21.75
1697611893772620000,7.7266201171875,26.006250381469727,40.96875,-21.712501525878906
1697611893792628500,7.74662841796875,25.668750762939453,40.51875305175781,-22.33125114440918
1697611893812629000,7.76662890625,26.625001907348633,40.61250305175781,-21.918750762939453
1697611893832625000,7.786625,25.368751525878906,40.6875,-22.537500381469727
1697611893852617700,7.80661767578125,25.462501525878906,40.85625076293945,-22.725000381469727
1697611893872619300,7.826619384765625,25.762500762939453,40.125,-23.26875114440918
1697611893892617200,7.8466171875,25.125001907348633,40.125,-23.662500381469727
1697611893912624400,7.866624267578125,25.012500762939453,40.368751525878906,-24.375001907348633
1697611893932628000,7.8866279296875,25.23750114440918,39.75,-24.075000762939453
1697611893952633900,7.9066337890625,25.33125114440918,39.84375,-24.281251907348633
1697611893972634000,7.926634033203125,25.537500381469727,39.58125305175781,-23.775001525878906
1697611893992630300,7.94663037109375,25.537500381469727,39.30000305175781,-24.39375114440918
1697611894012634000,7.966634033203125,26.568750381469727,38.60625076293945,-24.20625114440918
1697611894032632600,7.986632568359375,27.506250381469727,37.89375305175781,-24.20625114440918
1697611894052627700,8.006627685546874,28.668750762939453,37.21875,-23.08125114440918
1697611894072619800,8.026619873046876,29.718751907348633,36.35625076293945,-22.40625
1697611894092609500,8.046609619140625,30.431251525878906,35.92500305175781,-21.787500381469727
1697611894112609000,8.066609130859375,31.162500381469727,34.70625305175781,-21.618751525878906
1697611894132612600,8.086612548828125,31.70625114440918,34.63125228881836,-20.793750762939453
1697611894152623400,8.106623291015625,32.64375305175781,34.03125,-20.193750381469727
1697611894172620300,8.126620361328126,32.4375,33.84375,-20.006250381469727
1697611894192625400,8.14662548828125,32.13750076293945,33.243751525878906,-19.3125
1697611894212625000,8.166625,33.07500076293945,33.26250076293945,-18.506250381469727
1697611894232630000,8.186630126953125,33.48750305175781,32.400001525878906,-18.01875114440918
1697611894252633000,8.206633056640625,33.60000228881836,31.968751907348633,-17.625
1697611894272632000,8.226632080078126,34.01250076293945,30.825000762939453,-17.34375
1697611894292642600,8.246642578125,34.743751525878906,30.225000381469727,-16.856250762939453
1697611894312646400,8.266646484375,35.587501525878906,29.437501907348633,-16.256250381469727
1697611894332644600,8.28664453125,35.493751525878906,28.668750762939453,-15.468750953674316
1697611894352650500,8.306650390625,36.84375,27.95625114440918,-15.168750762939453
1697611894372650200,8.326650146484376,36.73125076293945,27.243751525878906,-15.093750953674316
1697611894392657000,8.346656982421875,36.95625305175781,26.662500381469727,-13.987500190734863
1697611894412657700,8.36665771484375,37.275001525878906,26.137500762939453,-13.706250190734863
1697611894432653800,8.38665380859375,38.41875076293945,24.993751525878906,-13.106250762939453
1697611894452650500,8.406650390625,38.32500076293945,24.39375114440918,-12.412500381469727
1697611894472651300,8.4266513671875,39.150001525878906,23.26875114440918,-11.625
1697611894492647400,8.4466474609375,39.16875076293945,22.668750762939453,-11.043750762939453
1697611894512640800,8.466640869140624,39.48750305175781,21.431251525878906,-10.162500381469727
1697611894532624600,8.486624755859374,39.993751525878906,20.568750381469727,-9.881250381469727
1697611894552618800,8.50661865234375,39.69375228881836,20.137500762939453,-9.1875
1697611894572610800,8.52661083984375,39.78750228881836,19.33125114440918,-9.318750381469727
1697611894592612600,8.546612548828126,39.993751525878906,18.806251525878906,-9.018750190734863
1697611894612618200,8.5666181640625,40.53750228881836,18.39375114440918,-8.325000762939453
1697611894632619000,8.586618896484374,39.900001525878906,18.20625114440918,-8.737500190734863
1697611894652627200,8.606627197265626,40.23750305175781,18.056251525878906,-7.537500381469727
1697611894672640800,8.626640869140624,40.42500305175781,18.5625,-8.325000762939453
1697611894692647200,8.646647216796875,40.650001525878906,18.58125114440918,-7.312500476837158
1697611894712647400,8.6666474609375,39.82500076293945,18.67500114440918,-7.425000190734863
1697611894732643000,8.68664306640625,40.44375228881836,19.03125,-7.406250476837158
1697611894752646700,8.706646728515626,40.743751525878906,19.387500762939453,-7.575000286102295
1697611894772646400,8.726646484375,40.556251525878906,19.743751525878906,-7.275000095367432
1697611894792644600,8.74664453125,39.9375,20.26875114440918,-7.462500095367432
1697611894812646400,8.766646484375,40.66875076293945,20.53125,-7.443750381469727
1697611894832643600,8.7866435546875,40.14375305175781,21.86250114440918,-7.931250095367432
1697611894852640800,8.806640869140624,40.14375305175781,22.387500762939453,-8.21250057220459
1697611894872634600,8.826634521484374,40.14375305175781,22.912500381469727,-7.893750190734863
1697611894892626000,8.8466259765625,39.82500076293945,23.53125,-7.875000476837158
1697611894912615700,8.86661572265625,39.63750076293945,24.431251525878906,-7.856250286102295
1697611894932605700,8.886605712890624,39.431251525878906,25.406251907348633,-7.837500095367432
1697611894952611600,8.906611572265625,39.337501525878906,26.212501525878906,-7.012500286102295
1697611894972624000,8.926623779296875,38.41875076293945,27.731250762939453,-6.975000381469727
1697611894992629500,8.94662939453125,38.41875076293945,28.443750381469727,-6.862500190734863
1697611895012641300,8.966641357421874,37.59375,29.325000762939453,-6.543750286102295
1697611895032635000,8.986634765625,36.88125228881836,30.225000381469727,-5.925000190734863
1697611895052636700,9.00663671875,37.087501525878906,30.843751907348633,-6
1697611895072645000,9.02664501953125,36.88125228881836,31.743751525878906,-5.662500381469727
1697611895092636000,9.046635986328125,36.69375228881836,32.90625,-5.4375
1697611895112629500,9.06662939453125,35.56875228881836,33.63750076293945,-4.631250381469727
1697611895132633900,9.0866337890625,35.775001525878906,33.993751525878906,-4.518750190734863
1697611895152637700,9.1066376953125,35.47500228881836,34.368751525878906,-3.3937501907348633
1697611895172636700,9.12663671875,35.0625,34.98750305175781,-3.4875001907348633
1697611895192635100,9.14663525390625,34.14375305175781,35.4375,-3.3937501907348633
1697611895212629800,9.166629638671875,34.25625228881836,36.48750305175781,-3.562500238418579
1697611895232629000,9.18662890625,33.712501525878906,36.39375305175781,-3.7687501907348633
1697611895252631600,9.206631591796874,33.39375305175781,37.44375228881836,-4.650000095367432
1697611895272626700,9.226626708984375,32.775001525878906,37.59375,-4.856250286102295
1697611895292626200,9.246626220703124,32.75625228881836,38.118751525878906,-5.962500095367432
1697611895312633300,9.26663330078125,32.23125076293945,38.4375,-6.956250190734863
1697611895332634600,9.286634521484375,32.118751525878906,38.60625076293945,-7.256250381469727
1697611895352643000,9.30664306640625,31.068750381469727,38.8125,-9.1875
1697611895372645000,9.32664501953125,30.20625114440918,39.22500228881836,-10.200000762939453
1697611895392642600,9.346642578125,28.950000762939453,40.25625228881836,-11.606250762939453
1697611895412647200,9.366647216796874,27.375001907348633,40.931251525878906,-13.012500762939453
1697611895432646700,9.386646728515625,25.912500381469727,41.70000076293945,-13.725000381469727
1697611895452645600,9.406645751953125,24.656251907348633,42.84375,-14.11875057220459
1697611895472641300,9.426641357421875,23.625,43.368751525878906,-14.11875057220459
1697611895492640800,9.446640869140625,21.131250381469727,43.875,-14.531250953674316
1697611895512642300,9.466642333984375,21.01875114440918,44.400001525878906,-14.925000190734863
1697611895532626000,9.4866259765625,20.92500114440918,44.51250076293945,-13.912500381469727
1697611895552620500,9.50662060546875,20.212501525878906,45.056251525878906,-13.106250762939453
1697611895572624400,9.526624267578125,20.34375,45,-12.300000190734863
1697611895592623600,9.54662353515625,19.912500381469727,45.16875076293945,-12.300000190734863
1697611895612626400,9.56662646484375,19.70625114440918,45.431251525878906,-12.487500190734863
1697611895632625000,9.586625,19.61250114440918,45.618751525878906,-12.281250953674316
1697611895652631300,9.60663134765625,19.818750381469727,45.78750228881836,-12.281250953674316
1697611895672632000,9.626632080078124,19.725000381469727,45.618751525878906,-11.887500762939453
1697611895692640000,9.646639892578126,19.931251525878906,45.63750076293945,-11.68125057220459
1697611895712641800,9.666641845703126,20.4375,45.09375,-12.093750953674316
1697611895732638700,9.686638671875,20.64375114440918,45.26250076293945,-12.581250190734863
1697611895752643300,9.706643310546875,20.962501525878906,45.431251525878906,-12.168750762939453
1697611895772642800,9.726642822265624,20.756250381469727,45.26250076293945,-12.487500190734863
1697611895792641500,9.7466416015625,20.962501525878906,45.1875,-12.187500953674316
1697611895812644400,9.766644287109376,21.48750114440918,45.09375,-11.86875057220459
1697611895832642300,9.786642333984375,21.28125,44.75625228881836,-11.381250381469727
1697611895852647700,9.806647705078126,22.106250762939453,44.83125305175781,-11.662500381469727
1697611895872640300,9.82664013671875,21.693750381469727,45.20625305175781,-11.362500190734863
1697611895892630300,9.84663037109375,22.743751525878906,44.775001525878906,-11.268750190734863
1697611895912621800,9.866621826171874,22.743751525878906,44.32500076293945,-10.96875
1697611895932609300,9.886609375,23.26875114440918,44.41875076293945,-11.268750190734863
1697611895952614000,9.90661376953125,22.743751525878906,44.66250228881836,-11.362500190734863
1697611895972625400,9.92662548828125,22.837501525878906,44.13750076293945,-11.381250381469727
1697611895992630500,9.946630615234374,22.537500381469727,43.89375305175781,-10.875
1697611896012641800,9.966641845703125,23.043750762939453,44.04375076293945,-11.77500057220459
1697611896032635000,9.986634765625,22.931251525878906,44.64375305175781,-12.375000953674316
1697611896052636400,10.006636474609374,23.231250762939453,43.85625076293945,-12.487500190734863
1697611896072644600,10.02664453125,22.818750381469727,43.743751525878906,-12.80625057220459
1697611896092646700,10.046646728515626,22.40625,44.28750228881836,-12.881250381469727
1697611896112637200,10.06663720703125,22.387500762939453,44.00625228881836,-13.293750762939453
1697611896132628200,10.086628173828124,21.150001525878906,44.625,-13.406250953674316
1697611896152632800,10.1066328125,20.512500762939453,44.775001525878906,-14.11875057220459
1697611896172632600,10.126632568359375,19.162500381469727,44.94375228881836,-13.93125057220459
1697611896192632000,10.146632080078126,20.006250381469727,44.51250076293945,-13.725000381469727
1697611896212627500,10.16662744140625,19.387500762939453,44.868751525878906,-13.631250381469727
1697611896232620000,10.1866201171875,19.6875,44.681251525878906,-14.325000762939453
1697611896252621600,10.20662158203125,18.431251525878906,45.20625305175781,-14.02500057220459
1697611896272622000,10.2266220703125,18.225000381469727,45.11250305175781,-14.231250762939453
1697611896292623400,10.246623291015625,16.762500762939453,45.78750228881836,-15.450000762939453
1697611896312631800,10.2666318359375,17.71875,45.63750076293945,-14.437500953674316
1697611896332622800,10.286622802734374,17.606250762939453,45.375,-14.437500953674316
1697611896352634400,10.30663427734375,17.08125114440918,45.63750076293945,-14.550000190734863
1697611896372639500,10.326639404296875,16.762500762939453,46.33125305175781,-14.831250190734863
1697611896392639000,10.346638916015625,15.506250381469727,46.03125,-15.675000190734863
1697611896412645600,10.366645751953126,14.58750057220459,46.40625,-15.375000953674316
1697611896432646100,10.386646240234375,15.318750381469727,46.42500305175781,-14.231250762939453
1697611896452646000,10.40664599609375,15.225000381469727,46.53750228881836,-13.93125057220459
1697611896472644400,10.426644287109376,15.225000381469727,46.33125305175781,-14.250000953674316
1697611896492643800,10.446643798828125,14.906250953674316,46.42500305175781,-14.250000953674316
1697611896512639200,10.46663916015625,14.718750953674316,46.70625305175781,-13.93125057220459
1697611896532624100,10.4866240234375,13.875000953674316,47.15625,-13.74375057220459
1697611896552619300,10.506619384765624,13.987500190734863,46.44375228881836,-13.856250762939453
1697611896572619000,10.526618896484376,15.037500381469727,46.89375305175781,-13.331250190734863
1697611896592621000,10.54662109375,15.131250381469727,46.89375305175781,-13.331250190734863
1697611896612619800,10.566619873046875,15.018750190734863,46.89375305175781,-13.631250381469727
1697611896632620000,10.5866201171875,14.812500953674316,46.44375228881836,-13.443750381469727
1697611896652627700,10.606627685546876,15.131250381469727,46.81875228881836,-13.125000953674316
1697611896672641300,10.626641357421875,15.037500381469727,46.91250228881836,-13.012500762939453
1697611896692647400,10.6466474609375,15.975000381469727,46.72500228881836,-13.125000953674316
1697611896712647700,10.666647705078125,16.59375,46.38750076293945,-13.012500762939453
1697611896732643000,10.68664306640625,17.418750762939453,45.76875305175781,-13.331250190734863
1697611896752646400,10.706646484375,17.418750762939453,46.20000076293945,-13.406250953674316
1697611896772644900,10.726644775390625,18.131250381469727,46.03125,-13.218750953674316
1697611896792644400,10.746644287109374,18.46875,45.76875305175781,-13.012500762939453
1697611896812653000,10.766653076171876,20.53125,45.07500076293945,-12.90000057220459
1697611896832648700,10.786648681640624,20.943750381469727,45.337501525878906,-13.293750762939453
1697611896852655000,10.806655029296875,21.150001525878906,44.4375,-13.406250953674316
1697611896872645400,10.826645263671875,21.356250762939453,44.08125305175781,-13.425000190734863
1697611896892634400,10.84663427734375,22.387500762939453,43.89375305175781,-13.818750381469727
1697611896912640000,10.866639892578124,23.118751525878906,43.44375228881836,-14.11875057220459
1697611896932621800,10.886621826171876,23.73750114440918,43.368751525878906,-14.006250381469727
1697611896952622300,10.906622314453125,25.275001525878906,42.39375305175781,-14.418750762939453
1697611896972630500,10.926630615234375,26.625001907348633,41.775001525878906,-14.325000762939453
1697611896992633300,10.94663330078125,26.73750114440918,40.98750305175781,-14.343750953674316
1697611897012642800,10.966642822265625,28.181251525878906,40.368751525878906,-14.231250762939453
1697611897032635000,10.986634765625,28.593751907348633,39.84375,-14.043750762939453
1697611897052635600,11.0066357421875,30.375001907348633,39.243751525878906,-13.537500381469727
1697611897072643300,11.026643310546875,30.881250381469727,38.79375076293945,-13.631250381469727
1697611897092645400,11.046645263671875,31.51875114440918,37.48125076293945,-13.36875057220459
1697611897112635100,11.06663525390625,33.16875076293945,36.95625305175781,-13.443750381469727
1697611897132632300,11.08663232421875,33.58125305175781,35.88750076293945,-13.068750381469727
1697611897152636000,11.106635986328126,34.931251525878906,35.28750228881836,-12.862500190734863
1697611897172635000,11.126634765625,35.55000305175781,34.3125,-12.787500381469727
1697611897192643300,11.146643310546875,36.1875,32.73750305175781,-12.225000381469727
1697611897212636000,11.166635986328124,36.16875076293945,31.837501525878906,-13.050000190734863
1697611897232626000,11.1866259765625,37.51875305175781,31.500001907348633,-12.131250381469727
1697611897252627000,11.206626953125,38.45625305175781,30.712501525878906,-11.625
1697611897272622600,11.22662255859375,38.98125076293945,29.943750381469727,-10.631250381469727
1697611897292622800,11.246622802734375,39.20625305175781,29.493751525878906,-10.74375057220459
1697611897312630800,11.266630859375,39.82500076293945,29.493751525878906,-10.83750057220459
1697611897332621600,11.28662158203125,38.23125076293945,29.118751525878906,-12.093750953674316
1697611897352633000,11.306633056640624,38.56875228881836,29.137500762939453,-10.762500762939453
1697611897372638200,11.32663818359375,40.03125,29.08125114440918,-10.143750190734863
1697611897392637700,11.3466376953125,40.368751525878906,28.481250762939453,-9.15000057220459
1697611897412644400,11.366644287109375,41.60625076293945,27.187501907348633,-8.268750190734863
1697611897432645400,11.386645263671875,41.306251525878906,26.475000381469727,-7.987500190734863
1697611897452645000,11.40664501953125,42.03750228881836,26.043750762939453,-7.875000476837158
1697611897472650200,11.426650146484375,42.65625,25.51875114440918,-7.893750190734863
1697611897492648400,11.4466484375,42.431251525878906,25.14375114440918,-7.800000190734863
1697611897512651000,11.466651123046875,43.181251525878906,25.087501525878906,-7.087500095367432
1697611897532632600,11.486632568359376,42.76875305175781,24.975000381469727,-7.500000476837158
1697611897552626000,11.5066259765625,43.275001525878906,24.468751907348633,-7.406250476837158
1697611897572617200,11.5266171875,43.16250228881836,24.01875114440918,-7.425000190734863
1697611897592617500,11.546617431640625,43.16250228881836,23.73750114440918,-7.931250095367432
1697611897612614400,11.566614501953126,43.25625228881836,23.55000114440918,-8.043750762939453
1697611897632615700,11.58661572265625,43.16250228881836,23.568750381469727,-7.837500095367432
1697611897652624400,11.606624267578125,43.462501525878906,23.83125114440918,-7.818750381469727
1697611897672638700,11.626638671875,43.06875228881836,23.8125,-7.931250095367432
1697611897692645600,11.646645751953125,42.73125076293945,23.981250762939453,-8.643750190734863
1697611897712646400,11.666646484375,42.95625305175781,24.168750762939453,-8.02500057220459
1697611897732642300,11.686642333984375,43.48125076293945,24.712501525878906,-7.800000190734863
1697611897752646100,11.706646240234376,42.63750076293945,24.693750381469727,-8.11875057220459
1697611897772644900,11.726644775390625,42.01875305175781,25.312501907348633,-8.21250057220459
1697611897792643000,11.74664306640625,41.60625076293945,26.100000381469727,-8.58750057220459
1697611897812651800,11.76665185546875,42.22500228881836,26.812501907348633,-9.075000762939453
1697611897832648000,11.78664794921875,40.66875076293945,27.525001525878906,-8.662500381469727
1697611897852651800,11.80665185546875,40.462501525878906,28.125001907348633,-9.46875
1697611897872643800,11.826643798828124,40.03125,29.08125114440918,-9.637500762939453
1697611897892632300,11.84663232421875,39.618751525878906,29.681251525878906,-10.237500190734863
1697611897912631000,11.866631103515624,38.79375076293945,30.225000381469727,-10.125
1697611897932615400,11.886615478515624,38.47500228881836,31.368751525878906,-10.612500190734863
1697611897952615000,11.906614990234376,37.650001525878906,32.15625,-10.59375
1697611897972614100,11.9266142578125,37.35000228881836,33.13125228881836,-10.668750762939453
1697611897992621600,11.94662158203125,36.50625228881836,33.65625,-11.081250190734863
1697611898012634600,11.966634521484375,35.26875305175781,35.23125076293945,-11.456250190734863
1697611898032641000,11.98664111328125,33.91875076293945,35.92500305175781,-11.850000381469727
1697611898052641500,12.0066416015625,33.41250228881836,36.65625,-11.02500057220459
1697611898072648700,12.026648681640625,32.681251525878906,37.556251525878906,-10.612500190734863
1697611898092650000,12.04664990234375,32.17500305175781,38.60625076293945,-10.78125
1697611898112646100,12.066646240234375,31.14375114440918,39.69375228881836,-10.068750381469727
1697611898132632600,12.086632568359375,30.637500762939453,40.66875076293945,-9.956250190734863
1697611898152635600,12.1066357421875,28.668750762939453,41.4375,-10.55625057220459
1697611898172634600,12.126634521484375,27.318750381469727,42.056251525878906,-10.762500762939453
1697611898192633000,12.146633056640624,27.093751907348633,42.91875076293945,-11.25
1697611898212628700,12.166628662109375,24.806251525878906,43.59375,-12.075000762939453
1697611898232620800,12.186620849609374,24.075000762939453,44.04375076293945,-12.075000762939453
1697611898252636200,12.20663623046875,22.725000381469727,44.55000305175781,-12.787500381469727
1697611898272630800,12.226630859375,21.67500114440918,44.88750076293945,-13.08750057220459
1697611898292629500,12.24662939453125,20.625,45.67500305175781,-13.687500953674316
1697611898312635600,12.2666357421875,19.368751525878906,45.82500076293945,-14.512500762939453
1697611898332625000,12.286625,18.337501525878906,46.10625076293945,-13.912500381469727
1697611898352635400,12.306635498046875,17.512500762939453,46.63125228881836,-13.912500381469727
1697611898372639200,12.32663916015625,16.14375114440918,46.70625305175781,-14.437500953674316
1697611898392638500,12.346638427734375,15.43125057220459,46.96875,-14.02500057220459
1697611898412644400,12.366644287109375,14.718750953674316,47.587501525878906,-14.11875057220459
1697611898432644900,12.386644775390625,14.718750953674316,47.51250076293945,-13.612500190734863
1697611898452652300,12.40665234375,13.687500953674316,47.41875076293945,-13.425000190734863
1697611898472646700,12.426646728515625,13.36875057220459,47.868751525878906,-13.312500953674316
1697611898492645000,12.44664501953125,13.575000762939453,47.681251525878906,-13.631250381469727
1697611898512640000,12.466639892578126,12.937500953674316,48.01875305175781,-14.231250762939453
1697611898532624000,12.486623779296876,13.050000190734863,47.681251525878906,-13.83750057220459
1697611898552619000,12.506618896484374,12.52500057220459,47.83125305175781,-14.137500762939453
1697611898572612000,12.526612060546874,13.46250057220459,47.85000228881836,-14.02500057220459
1697611898592618500,12.546618408203125,13.36875057220459,47.493751525878906,-13.74375057220459
1697611898612620500,12.56662060546875,13.050000190734863,47.85000228881836,-14.137500762939453
1697611898632620800,12.586620849609375,13.256250381469727,47.400001525878906,-14.343750953674316
1697611898652628500,12.60662841796875,13.668750762939453,47.85000228881836,-13.93125057220459
1697611898672630500,12.626630615234374,14.40000057220459,47.41875076293945,-13.83750057220459
1697611898692627700,12.646627685546875,14.40000057220459,47.23125076293945,-14.02500057220459
1697611898712632800,12.6666328125,15.131250381469727,47.51250076293945,-13.218750953674316
1697611898732632600,12.686632568359375,15.131250381469727,47.15625,-13.518750190734863
1697611898752639500,12.706639404296874,16.293750762939453,47.28750228881836,-12.693750381469727
1697611898772640800,12.726640869140626,17.025001525878906,47.36250305175781,-12.675000190734863
1697611898792640800,12.746640869140625,17.756250381469727,46.875,-11.568750381469727
1697611898812640300,12.76664013671875,18.075000762939453,46.51875305175781,-11.381250381469727
1697611898832640000,12.786639892578124,18.806251525878906,46.70625305175781,-11.456250190734863
1697611898852653600,12.806653564453125,19.837501525878906,46.181251525878906,-11.15625
1697611898872634400,12.82663427734375,20.981250762939453,45.67500305175781,-10.350000381469727
1697611898892625700,12.846625732421876,22.14375114440918,45.22500228881836,-10.143750190734863
1697611898912626700,12.866626708984375,22.668750762939453,45.150001525878906,-10.03125
1697611898932612000,12.886612060546875,24.225000381469727,44.64375305175781,-9.637500762939453
1697611898952608500,12.9066083984375,24.731250762939453,44.26875305175781,-9.9375
1697611898972621300,12.926621337890625,25.462501525878906,43.85625076293945,-9.33750057220459
1697611898992627700,12.946627685546876,26.587501525878906,42.95625305175781,-10.143750190734863
1697611899012639700,12.9666396484375,27.11250114440918,42.78750228881836,-9.33750057220459
1697611899032644900,12.986644775390625,28.162500381469727,42,-9.33750057220459
1697611899052644400,13.006644287109374,29.512500762939453,41.306251525878906,-9.037500381469727
1697611899072650800,13.026650634765625,30.450000762939453,40.25625228881836,-8.25
1697611899092651000,13.046651123046875,31.087501525878906,40.087501525878906,-7.931250095367432
1697611899112647000,13.06664697265625,32.4375,39.31875228881836,-7.237500190734863
1697611899132632600,13.086632568359375,32.962501525878906,38.45625305175781,-6.243750095367432
1697611899152642000,13.10664208984375,33.91875076293945,37.85625076293945,-5.643750190734863
1697611899172639200,13.12663916015625,36,36.82500076293945,-4.425000190734863
1697611899192643800,13.146643798828125,35.493751525878906,35.70000076293945,-3.562500238418579
1697611899212636000,13.166635986328124,37.06875228881836,34.66875076293945,-2.2687501907348633
1697611899232625700,13.186625732421875,38.00625228881836,33.806251525878906,-1.6687500476837158
1697611899252632000,13.206632080078125,38.85000228881836,32.32500076293945,-0.28125
1697611899272616000,13.226615966796874,39.26250076293945,31.368751525878906,-0.20625001192092896
1697611899292617500,13.246617431640624,39.375,30.412500381469727,0.5625
1697611899312626400,13.26662646484375,41.025001525878906,28.725000381469727,0.65625
1697611899332618200,13.2866181640625,41.4375,28.125001907348633,1.03125
1697611899352630800,13.306630859375,42.39375305175781,26.64375114440918,1.912500023841858
1697611899372636700,13.32663671875,42.58125305175781,25.837501525878906,1.8000000715255737
1697611899392637000,13.346636962890624,43.10625076293945,24.600000381469727,1.9687501192092896
1697611899412643800,13.366643798828125,42.58125305175781,24.337501525878906,1.8562500476837158
1697611899432645000,13.38664501953125,43.20000076293945,23.53125,2.137500047683716
1697611899452652500,13.406652587890624,43.20000076293945,22.912500381469727,1.9312500953674316
1697611899472647700,13.426647705078125,43.29375076293945,23.4375,1.631250023841858
1697611899492646400,13.446646484375,43.40625,23.512500762939453,1.443750023841858
1697611899512641000,13.46664111328125,42.58125305175781,23.34375,1.8375000953674316
1697611899532624600,13.486624755859374,42.88125228881836,24.243751525878906,1.6687500476837158
1697611899552619500,13.50661962890625,42.69375228881836,24.600000381469727,1.9687501192092896
1697611899572612000,13.526612060546874,42.26250076293945,25.218751907348633,1.8750001192092896
1697611899592632800,13.5466328125,41.34375,26.287500381469727,2.1937501430511475
1697611899612627500,13.56662744140625,41.025001525878906,27.075000762939453,1.6125000715255737
1697611899632625400,13.58662548828125,40.837501525878906,28.406251907348633,1.9500000476837158
1697611899652631600,13.606631591796875,40.10625076293945,29.025001525878906,1.8562500476837158
1697611899672643300,13.626643310546875,39.60000228881836,30.431251525878906,2.0812501907348633
1697611899692637200,13.64663720703125,39.1875,31.312501907348633,1.7062500715255737
1697611899712639200,13.66663916015625,38.45625305175781,31.593751907348633,1.8000000715255737
1697611899732636700,13.68663671875,37.40625,32.98125076293945,1.0125000476837158
1697611899752641500,13.7066416015625,36.88125228881836,33.58125305175781,0.8250000476837158
1697611899772641300,13.726641357421874,36.48750305175781,34.91250228881836,0.45000001788139343
1697611899792648200,13.746648193359375,35.55000305175781,35.962501525878906,0.26250001788139343
1697611899812651000,13.766651123046875,34.61250305175781,36.9375,0.1875
1697611899832647200,13.786647216796876,33.88125228881836,37.20000076293945,0.07500000298023224
1697611899852651300,13.8066513671875,32.868751525878906,38.4375,0.30000001192092896
1697611899872644000,13.82664404296875,31.818750381469727,39.22500228881836,-0.1875
1697611899892632600,13.846632568359375,30.67500114440918,39.65625,-0.6937500238418579
1697611899912619800,13.866619873046876,29.325000762939453,40.96875,-0.7875000238418579
1697611899932606000,13.88660595703125,28.293750762939453,42.03750228881836,-0.768750011920929
1697611899952606500,13.9066064453125,27.168750762939453,43.01250076293945,-0.15000000596046448
1697611899972608300,13.926608154296876,26.531251907348633,43.368751525878906,-0.75
1697611899992617500,13.946617431640625,26.025001525878906,44.26875305175781,0.26250001788139343
1697611900012632600,13.966632568359374,24.787500381469727,44.625,0.26250001788139343
1697611900032639700,13.9866396484375,23.73750114440918,44.868751525878906,-0.3375000059604645
1697611900052641300,14.006641357421875,23.118751525878906,45.31875228881836,-0.3375000059604645
1697611900072649000,14.02664892578125,22.087501525878906,45.75,-0.13125000894069672
1697611900092650500,14.046650390625,22.068750381469727,46.181251525878906,-0.5250000357627869
1697611900112647000,14.06664697265625,21.243751525878906,46.61250305175781,-0.6375000476837158
1697611900132632800,14.0866328125,20.306251525878906,47.15625,-0.5250000357627869
1697611900152631800,14.1066318359375,20.212501525878906,46.96875,-0.6375000476837158
1697611900172631300,14.12663134765625,19.575000762939453,47.32500076293945,-0.7312500476837158
1697611900192638700,14.146638671875,18.84375,47.400001525878906,-0.8437500596046448
1697611900212632600,14.166632568359375,19.162500381469727,47.587501525878906,-0.5250000357627869
1697611900232623600,14.18662353515625,19.70625114440918,47.51250076293945,0.07500000298023224
1697611900252624000,14.206623779296875,19.59375,47.34375,0.05625000223517418
1697611900272621000,14.22662109375,20.64375114440918,47.26875305175781,0.675000011920929
1697611900292616200,14.2466162109375,20.53125,47.00625228881836,0.675000011920929
1697611900312625700,14.266625732421875,20.64375114440918,46.837501525878906,0.862500011920929
1697611900332618200,14.2866181640625,21.28125,46.51875305175781,1.8750001192092896
1697611900352631000,14.306631103515626,22.33125114440918,46.087501525878906,2.5875000953674316
1697611900372637000,14.326636962890625,23.587501525878906,45.39375305175781,2.981250047683716
1697611900392637400,14.346637451171874,24.093751907348633,45.03750228881836,2.981250047683716
1697611900412644600,14.36664453125,25.14375114440918,44.4375,3.8812501430511475
1697611900432645600,14.386645751953125,25.462501525878906,44.45625305175781,4.106250286102295
1697611900452653300,14.4066533203125,26.606250762939453,44.025001525878906,4.706250190734863
1697611900472647200,14.426647216796875,26.718751907348633,43.6875,4.800000190734863
1697611900492652500,14.446652587890625,27.243751525878906,43.16250228881836,5.400000095367432
1697611900512645600,14.466645751953125,28.687501907348633,42.1875,5.287500381469727
1697611900532636000,14.486635986328125,29.625001907348633,41.83125305175781,5.493750095367432
1697611900552628000,14.5066279296875,30.037500381469727,40.78125,5.681250095367432
1697611900572618000,14.526617919921875,30.150001525878906,40.10625076293945,6.562500476837158
1697611900592628200,14.546628173828125,31.931251525878906,39.243751525878906,7.481250286102295
1697611900612623000,14.566623046875,32.025001525878906,38.08125305175781,7.650000095367432
1697611900632621800,14.586621826171875,31.70625114440918,37.368751525878906,7.425000190734863
1697611900652628500,14.60662841796875,33.900001525878906,36.243751525878906,8.02500057220459
1697611900672641300,14.626641357421875,34.63125228881836,35.73750305175781,8.512500762939453
1697611900692647000,14.64664697265625,34.21875,34.95000076293945,9.206250190734863
1697611900712647000,14.66664697265625,36.618751525878906,33.5625,10.106250762939453
1697611900732642300,14.686642333984375,36.82500076293945,31.818750381469727,10.96875
1697611900752645600,14.706645751953126,37.14375305175781,30.86250114440918,11.943750381469727
1697611900772643800,14.726643798828125,37.78125,29.625001907348633,12.52500057220459
1697611900792650000,14.74664990234375,38.60625076293945,27.618751525878906,13.293750762939453
1697611900812643000,14.76664306640625,39.54375076293945,26.64375114440918,13.687500953674316
1697611900832640800,14.786640869140625,39.95625305175781,24.637500762939453,14.531250953674316
1697611900852646400,14.806646484375,40.48125076293945,23.418750762939453,15.112500190734863
1697611900872639000,14.826638916015625,41.32500076293945,21.65625,15.581250190734863
1697611900892630000,14.846630126953125,40.89375305175781,20.775001525878906,16.068750381469727
1697611900912618000,14.866617919921875,42.03750228881836,19.631250381469727,16.350000381469727
1697611900932605200,14.886605224609376,41.94375228881836,18.84375,16.51875114440918
1697611900952603400,14.906603271484375,41.41875076293945,18.39375114440918,16.61250114440918
1697611900972617500,14.926617431640626,41.92500305175781,17.325000762939453,16.181251525878906
1697611900992625000,14.946625,42.243751525878906,17.231250762939453,16.387500762939453
1697611901012638000,14.966637939453125,42.03750228881836,17.25,16.78125
1697611901032644000,14.98664404296875,42.243751525878906,17.15625,16.6875
1697611901052644000,15.00664404296875,42.45000076293945,17.681251525878906,16.5
1697611901072650800,15.026650634765625,41.92500305175781,18.543750762939453,15.61875057220459
1697611901092651300,15.0466513671875,42.03750228881836,18.993751525878906,15.71250057220459
1697611901112647200,15.066647216796875,41.92500305175781,19.70625114440918,15.43125057220459
1697611901132632800,15.0866328125,41.8125,20.381250381469727,14.850000381469727
1697611901152637400,15.106637451171874,41.306251525878906,21.1875,14.77500057220459
1697611901172635600,15.1266357421875,41.306251525878906,21.975000381469727,14.49375057220459
1697611901192641300,15.146641357421874,40.556251525878906,23.100000381469727,13.500000953674316
1697611901212635100,15.16663525390625,40.57500076293945,24.075000762939453,13.537500381469727
1697611901232626200,15.186626220703126,40.14375305175781,25.031251907348633,13.143750190734863
1697611901252626000,15.2066259765625,39.84375,26.718751907348633,12.675000190734863
1697611901272622300,15.226622314453126,38.587501525878906,27.506250381469727,12.375000953674316
1697611901292615700,15.24661572265625,37.76250076293945,29.26875114440918,12.112500190734863
1697611901312625200,15.266625244140625,37.462501525878906,30.412500381469727,12.24375057220459
1697611901332617200,15.2866171875,36.22500228881836,31.743751525878906,11.96250057220459
1697611901352630000,15.306630126953126,35.60625076293945,32.79375076293945,11.981250762939453
1697611901372636200,15.32663623046875,34.98750305175781,33.60000228881836,12
1697611901392636700,15.34663671875,33.41250228881836,35.00625228881836,11.606250762939453
1697611901412644000,15.36664404296875,32.90625,35.88750076293945,11.625
1697611901432645000,15.38664501953125,31.762500762939453,37.21875,11.86875057220459
1697611901452653000,15.406653076171875,30.637500762939453,38.26875305175781,11.15625
1697611901472648200,15.426648193359375,29.381250381469727,39.50625228881836,11.381250381469727
1697611901492642300,15.446642333984375,28.443750381469727,40.20000076293945,10.987500190734863
1697611901512637700,15.4666376953125,28.031251907348633,40.650001525878906,11.287500381469727
1697611901532623400,15.486623291015626,26.475000381469727,41.681251525878906,10.706250190734863
1697611901552618800,15.50661865234375,25.968751907348633,42.22500228881836,10.40625
1697611901572612000,15.526612060546874,24.825000762939453,42.84375,10.706250190734863
1697611901592614100,15.5466142578125,23.887500762939453,43.462501525878906,10.706250190734863
1697611901612615400,15.566615478515626,23.043750762939453,43.875,10.106250762939453
1697611901632609800,15.58660986328125,22.837501525878906,44.13750076293945,9.80625057220459
1697611901652620300,15.606620361328124,22.631250381469727,44.13750076293945,9.693750381469727
1697611901672636200,15.62663623046875,22.743751525878906,44.32500076293945,10.3125
1697611901692644000,15.64664404296875,22.743751525878906,44.493751525878906,9.71250057220459
1697611901712645600,15.666645751953125,22.537500381469727,44.493751525878906,9.80625057220459
1697611901732642300,15.686642333984375,22.837501525878906,44.587501525878906,9.61875057220459
1697611901752646400,15.706646484375,22.931251525878906,44.23125076293945,9.80625057220459
1697611901772645000,15.72664501953125,23.15625,44.41875076293945,9.825000762939453
1697611901792639700,15.7466396484375,23.662500381469727,44.32500076293945,9.825000762939453
1697611901812635100,15.76663525390625,23.15625,44.0625,10.3125
1697611901832635400,15.786635498046875,23.26875114440918,43.89375305175781,10.518750190734863
1697611901852642800,15.806642822265625,24.20625114440918,43.53750228881836,10.3125
1697611901872644400,15.826644287109374,24.30000114440918,43.462501525878906,10.612500190734863
1697611901892634600,15.846634521484376,24.918750762939453,43.10625076293945,10.40625
1697611901912633900,15.8666337890625,25.031251907348633,42.75,10.5
1697611901932617500,15.886617431640625,26.062501907348633,42.58125305175781,10.912500381469727
1697611901952612000,15.906612060546875,26.587501525878906,42.22500228881836,10.518750190734863
1697611901972620300,15.926620361328125,27.318750381469727,41.60625076293945,10.5
1697611901992626200,15.946626220703125,27.825000762939453,40.91250228881836,10.893750190734863
1697611902012638500,15.966638427734376,28.556251525878906,40.63125228881836,10.59375
1697611902032643600,15.9866435546875,29.493751525878906,39.84375,10.78125
1697611902052643300,16.006643310546874,30.637500762939453,39.056251525878906,10.875
1697611902072649700,16.026649658203127,31.462501525878906,37.81875228881836,11.15625
1697611902092650500,16.046650390625,32.28750228881836,37.72500228881836,10.762500762939453
1697611902112646400,16.066646484375,33.525001525878906,36.07500076293945,11.550000190734863
1697611902132639000,16.086638916015627,34.44375228881836,35.17500305175781,11.02500057220459
1697611902152633600,16.106633544921873,34.76250076293945,34.21875,11.606250762939453
1697611902172632300,16.12663232421875,36.11250305175781,32.53125,11.887500762939453
1697611902192638700,16.146638671875,36.95625305175781,31.912500381469727,12.075000762939453
1697611902212632300,16.16663232421875,37.78125,29.475000381469727,13.237500190734863
1697611902232623400,16.186623291015625,38.19375228881836,28.500001907348633,13.312500953674316
1697611902252623600,16.20662353515625,39.13125228881836,26.756250381469727,13.987500190734863
1697611902272621600,16.22662158203125,39.65625,25.70625114440918,14.77500057220459
1697611902292615400,16.246615478515626,39.86250305175781,24.562501907348633,15.131250381469727
1697611902312625200,16.266625244140624,39.86250305175781,23.418750762939453,15.825000762939453
1697611902332617500,16.286617431640625,40.29375076293945,22.556251525878906,16.293750762939453
1697611902352630500,16.306630615234376,40.087501525878906,21.693750381469727,17.287500381469727
1697611902372636400,16.326636474609376,40.931251525878906,21.075000762939453,17.681251525878906
1697611902392637000,16.346636962890624,39.993751525878906,20.118751525878906,18.543750762939453
1697611902412644000,16.36664404296875,39.91875076293945,19.96875,19.256250381469727
1697611902432633900,16.3866337890625,41.04375076293945,19.087501525878906,19.14375114440918
1697611902452644400,16.406644287109376,40.3125,18.975000381469727,18.9375
1697611902472640500,16.426640625,40.42500305175781,18.806251525878906,19.125
1697611902492643000,16.44664306640625,40.42500305175781,19.33125114440918,19.03125
1697611902512639200,16.46663916015625,40.3125,19.42500114440918,19.14375114440918
1697611902532631800,16.4866318359375,40.42500305175781,19.950000762939453,18.75
1697611902552625400,16.50662548828125,39.806251525878906,20.137500762939453,19.462501525878906
1697611902572617000,16.526616943359375,40.42500305175781,20.475000381469727,18.67500114440918
1697611902592618200,16.5466181640625,39.58125305175781,20.92500114440918,18.76875114440918
1697611902612615200,16.566615234375,40.01250076293945,21.450000762939453,18.48750114440918
1697611902632611000,16.586611083984376,39.07500076293945,22.762500762939453,17.90625
1697611902652621000,16.60662109375,39.07500076293945,23.64375114440918,17.53125
1697611902672636400,16.626636474609374,38.75625228881836,25.481250762939453,17.17500114440918
1697611902692644000,16.64664404296875,38.025001525878906,26.625001907348633,16.481250762939453
1697611902712645600,16.666645751953126,37.42500305175781,28.481250762939453,16.725000381469727
1697611902732642000,16.68664208984375,36.48750305175781,28.743751525878906,16.537500381469727
1697611902752646000,16.70664599609375,36.26250076293945,29.36250114440918,16.443750381469727
1697611902772644900,16.726644775390625,35.4375,30.58125114440918,15.862500190734863
1697611902792639500,16.746639404296875,35.212501525878906,31.462501525878906,15.075000762939453
1697611902812635000,16.766634765625,35.32500076293945,32.60625076293945,14.700000762939453
1697611902832642000,16.78664208984375,34.38750076293945,33.63750076293945,13.818750381469727
1697611902852636700,16.80663671875,33.35625076293945,35.23125076293945,13.537500381469727
1697611902872639500,16.826639404296873,32.625,35.75625228881836,13.237500190734863
1697611902892630800,16.846630859375,32.306251525878906,36.900001525878906,13.068750381469727
1697611902912630800,16.866630859375,30.637500762939453,38.08125305175781,11.568750381469727
1697611902932628500,16.88662841796875,30.95625114440918,38.8125,11.887500762939453
1697611902952626000,16.9066259765625,28.98750114440918,40.57500076293945,11.30625057220459
1697611902972617500,16.926617431640626,28.031251907348633,40.72500228881836,11.081250190734863
1697611902992623600,16.94662353515625,26.887500762939453,42.11250305175781,9.80625057220459
1697611903012636200,16.96663623046875,25.312501907348633,42.525001525878906,8.981250762939453
1697611903032641800,16.986641845703126,24.281251907348633,43.6875,9.112500190734863
1697611903052641800,17.006641845703125,23.53125,44.19375228881836,8.006250381469727
1697611903072648700,17.026648681640626,23.325000762939453,44.53125,7.706250190734863
1697611903092649700,17.046649658203126,23.100000381469727,44.85000228881836,6.300000190734863
1697611903112646000,17.06664599609375,22.275001525878906,45.28125,6.393750190734863
1697611903132638500,17.086638427734375,22.387500762939453,45.54375076293945,6
1697611903152633000,17.106633056640625,21.75,46.087501525878906,5.90625
1697611903172632000,17.126632080078124,21.337501525878906,46.06875228881836,5.793750286102295
1697611903192639000,17.146638916015625,21.131250381469727,46.06875228881836,5.700000286102295
1697611903212640300,17.16664013671875,20.71875,46.6875,5.418750286102295
1697611903232630300,17.18663037109375,21.131250381469727,46.33125305175781,5.8125
1697611903252629000,17.20662890625,20.8125,46.51875305175781,5.90625
1697611903272635600,17.2266357421875,20.493751525878906,46.16250228881836,5.681250095367432
1697611903292637200,17.24663720703125,20.71875,46.25625228881836,5.793750286102295
1697611903312639700,17.2666396484375,20.512500762939453,46.33125305175781,6.093750476837158
1697611903332627700,17.286627685546875,20.606250762939453,46.42500305175781,5.493750095367432
1697611903352637000,17.306636962890625,20.287500381469727,46.14375305175781,5.587500095367432
1697611903372640000,17.326639892578125,19.98750114440918,46.33125305175781,5.493750095367432
1697611903392638500,17.346638427734376,20.287500381469727,46.57500076293945,4.987500190734863
1697611903412644000,17.36664404296875,20.606250762939453,46.57500076293945,5.100000381469727
1697611903432633000,17.386633056640626,21.01875114440918,46.40625,5.100000381469727
1697611903452643000,17.40664306640625,21.01875114440918,46.42500305175781,5.606250286102295
1697611903472647400,17.4266474609375,21.01875114440918,46.85625076293945,5.325000286102295
1697611903492638700,17.446638671875,21.11250114440918,46.76250076293945,5.212500095367432
1697611903512635400,17.466635498046877,20.17500114440918,47.00625228881836,4.5
1697611903532639700,17.4866396484375,20.17500114440918,46.81875228881836,3.8812501430511475
1697611903552632000,17.506632080078123,19.443750381469727,46.91250228881836,4.181250095367432
1697611903572621600,17.52662158203125,21,46.81875228881836,3.9000000953674316
1697611903592620800,17.546620849609376,20.15625,46.63125228881836,3.6750001907348633
1697611903612616700,17.56661669921875,20.475000381469727,46.89375305175781,3.281250238418579
1697611903632612900,17.58661279296875,20.26875114440918,47.25,3.2062501907348633
1697611903652622000,17.6066220703125,19.725000381469727,47.04375076293945,2.4750001430511475
1697611903672636700,17.62663671875,20.15625,47.04375076293945,2.6812500953674316
1697611903692644000,17.64664404296875,19.931251525878906,46.96875,2.3812501430511475
1697611903712645400,17.666645263671874,20.45625114440918,47.23125076293945,2.4937500953674316
1697611903732641500,17.6866416015625,20.043750762939453,47.04375076293945,2.2875001430511475
1697611903752645600,17.706645751953126,19.61250114440918,47.212501525878906,2.0812501907348633
1697611903772644600,17.72664453125,19.631250381469727,47.306251525878906,2.2875001430511475
1697611903792639200,17.74663916015625,19.725000381469727,47.38125228881836,1.7812501192092896
1697611903812634600,17.766634521484374,18.787500381469727,47.38125228881836,2.0625
1697611903832630300,17.78663037109375,18.881250381469727,47.28750228881836,1.7625000476837158
1697611903852627700,17.806627685546875,19.106250762939453,47.47500228881836,1.9687501192092896
1697611903872633000,17.826633056640624,19.200000762939453,47.47500228881836,1.7625000476837158
1697611903892625700,17.846625732421874,19.200000762939453,47.56875228881836,1.7812501192092896
1697611903912616400,17.866616455078123,18.787500381469727,47.56875228881836,1.9687501192092896
1697611903932605700,17.886605712890624,18.48750114440918,47.92500305175781,2.0812501907348633
1697611903952605000,17.90660498046875,18.993751525878906,47.92500305175781,2.0812501907348633
1697611903972615700,17.92661572265625,18.075000762939453,47.83125305175781,2.1750001907348633
1697611903992624000,17.9466240234375,17.962501525878906,47.56875228881836,1.9687501192092896
1697611904012638000,17.966637939453125,18.28125,47.75625228881836,2.5875000953674316
1697611904032643800,17.986643798828126,18.39375114440918,47.83125305175781,2.5875000953674316
1697611904052644400,18.006644287109374,18.1875,48.01875305175781,2.5875000953674316
1697611904072651300,18.0266513671875,17.962501525878906,47.85000228881836,2.7750000953674316
1697611904092652000,18.046652099609375,18.28125,48.11250305175781,2.5875000953674316
1697611904112648000,18.06664794921875,18.1875,47.83125305175781,2.5875000953674316
1697611904132640300,18.08664013671875,18.28125,48.11250305175781,2.793750047683716
1697611904152634600,18.106634521484374,18.506250381469727,48.11250305175781,3.093750238418579
1697611904172628700,18.126628662109376,17.981250762939453,48.03750228881836,3.281250238418579
1697611904192636200,18.14663623046875,17.568750381469727,47.85000228881836,3.075000047683716
1697611904212638200,18.16663818359375,18.506250381469727,47.94375228881836,3.281250238418579
1697611904232627700,18.186627685546874,18.09375,47.775001525878906,3.5812501907348633
1697611904252628000,18.2066279296875,18.30000114440918,47.775001525878906,3.7875001430511475
1697611904272624000,18.2266240234375,18.39375114440918,47.868751525878906,3.7875001430511475
1697611904292631800,18.2466318359375,18.506250381469727,47.868751525878906,3.5812501907348633
1697611904312629800,18.266629638671876,18.30000114440918,47.775001525878906,3.7875001430511475
1697611904332620500,18.28662060546875,18.618751525878906,48.22500228881836,3.5062501430511475
1697611904352632000,18.306632080078124,18.825000762939453,47.60625076293945,3.6937501430511475
1697611904372637200,18.32663720703125,18.618751525878906,47.60625076293945,3.8812501430511475
1697611904392637000,18.346636962890624,17.775001525878906,47.60625076293945,3.562500238418579
1697611904412643600,18.3666435546875,18.525001525878906,47.88750076293945,4.293750286102295
1697611904432633300,18.38663330078125,17.793750762939453,48.22500228881836,4.106250286102295
1697611904452643600,18.4066435546875,18,47.71875,4.293750286102295
1697611904472647400,18.4266474609375,18.731250762939453,47.71875,4.706250190734863
1697611904492639500,18.446639404296874,18.84375,47.90625,4.818750381469727
1697611904512636000,18.466635986328125,18.9375,47.47500228881836,5.306250095367432
1697611904532629200,18.486629150390623,19.14375114440918,47.38125228881836,5.306250095367432
1697611904552631000,18.506631103515623,19.462501525878906,47.38125228881836,5.71875
1697611904572632600,18.526632568359375,19.05000114440918,47.212501525878906,5.400000095367432
1697611904592632300,18.54663232421875,18.84375,47.400001525878906,6.112500190734863
1697611904612637400,18.566637451171875,19.256250381469727,47.04375076293945,5.90625
1697611904632626200,18.586626220703124,19.068750381469727,46.53750228881836,6.581250190734863
1697611904652631000,18.606631103515625,19.89375114440918,46.96875,6.018750190734863
1697611904672642600,18.626642578125,20.006250381469727,46.72500228881836,6.918750286102295
1697611904692647700,18.646647705078124,20.118751525878906,46.80000305175781,6.806250095367432
1697611904712647000,18.66664697265625,20.306251525878906,46.368751525878906,6.806250095367432
1697611904732641800,18.686641845703125,21.150001525878906,46.556251525878906,7.425000190734863
1697611904752645000,18.70664501953125,20.53125,46.29375076293945,7.406250476837158
1697611904772643600,18.7266435546875,20.850000381469727,46.125,7.818750381469727
1697611904792638000,18.746637939453127,20.850000381469727,45.95625305175781,8.006250381469727
1697611904812646700,18.766646728515624,21.168750762939453,46.125,7.725000381469727
1697611904832646000,18.78664599609375,21.693750381469727,45.78750228881836,8.512500762939453
1697611904852650200,18.806650146484376,21.262500762939453,45.69375228881836,8.8125
1697611904872649700,18.826649658203124,21.375,45.78750228881836,8.21250057220459
1697611904892637200,18.84663720703125,21.58125114440918,45.618751525878906,8.71875
1697611904912623400,18.866623291015625,21.787500381469727,45.618751525878906,8.625
1697611904932609300,18.886609375,21.881250381469727,45.431251525878906,8.418750762939453
1697611904952606500,18.9066064453125,22.3125,45.431251525878906,8.71875
1697611904972611600,18.926611572265625,22.3125,45.26250076293945,8.8125
1697611904992620000,18.9466201171875,22.106250762939453,45.16875076293945,8.71875
1697611905012634000,18.966634033203125,22.725000381469727,45.09375,9.018750190734863
1697611905032629500,18.98662939453125,22.3125,44.83125305175781,9.112500190734863
1697611905052632800,19.0066328125,23.043750762939453,44.75625228881836,9.52500057220459
1697611905072642600,19.026642578125,23.36250114440918,44.66250228881836,9.412500381469727
1697611905092646000,19.04664599609375,23.568750381469727,44.493751525878906,9.61875057220459
1697611905112643800,19.066643798828125,23.981250762939453,43.89375305175781,10.3125
1697611905132638000,19.086637939453126,24.39375114440918,43.61250305175781,9.80625057220459
1697611905152633600,19.106633544921873,25.23750114440918,43.63125228881836,10.331250190734863
1697611905172635000,19.126634765625,25.650001525878906,42.84375,10.40625
1697611905192641300,19.146641357421874,26.475000381469727,42.056251525878906,10.706250190734863
1697611905212642300,19.166642333984374,27.843751907348633,41.625,11.11875057220459
1697611905232631000,19.186631103515627,27.731250762939453,41.34375,10.912500381469727
1697611905252630500,19.206630615234374,27.825000762939453,41.34375,10.912500381469727
1697611905272625200,19.226625244140624,26.906251907348633,41.45625305175781,11.49375057220459
1697611905292633300,19.24663330078125,27.01875114440918,42.50625228881836,11.325000762939453
1697611905312636200,19.26663623046875,26.17500114440918,42.22500228881836,11.006250381469727
1697611905332625200,19.286625244140627,25.668750762939453,42.76875305175781,11.11875057220459
1697611905352635100,19.30663525390625,23.793750762939453,43.03125,11.40000057220459
1697611905372639200,19.32663916015625,23.475000381469727,43.98750305175781,11.02500057220459
1697611905392638000,19.346637939453124,20.981250762939453,44.868751525878906,10.612500190734863
1697611905412644400,19.366644287109374,19.537500381469727,45.84375,11.02500057220459
1697611905432633600,19.386633544921875,17.475000381469727,46.72500228881836,11.11875057220459
1697611905452643600,19.4066435546875,15.506250381469727,46.72500228881836,11.381250381469727
1697611905472647200,19.426647216796876,14.268750190734863,47.08125305175781,11.77500057220459
1697611905492638200,19.44663818359375,13.125000953674316,47.4375,12.375000953674316
1697611905512641500,19.4666416015625,12.300000190734863,47.19375228881836,12.862500190734863
1697611905532644400,19.486644287109375,12.71250057220459,46.837501525878906,13.162500381469727
1697611905552635100,19.50663525390625,13.237500190734863,46.931251525878906,13.387500762939453
1697611905572624100,19.5266240234375,12.506250381469727,47.10000228881836,13.068750381469727
1697611905592622800,19.546622802734376,12.71250057220459,46.931251525878906,13.162500381469727
1697611905612619800,19.566619873046875,11.887500762939453,47.38125228881836,13.575000762939453
1697611905632611800,19.58661181640625,12.412500381469727,46.6875,13.968750953674316
1697611905652614000,19.60661376953125,12.937500953674316,46.875,14.081250190734863
1697611905672619000,19.626618896484374,11.90625,46.59375,14.268750190734863
1697611905692630800,19.646630859375,12.018750190734863,46.78125,14.268750190734863
1697611905712635600,19.6666357421875,11.90625,46.85625076293945,14.175000190734863
1697611905732635100,19.68663525390625,11.58750057220459,47.13750076293945,14.175000190734863
1697611905752641800,19.706641845703125,11.0625,47.04375076293945,14.268750190734863
1697611905772642300,19.726642333984376,10.65000057220459,47.306251525878906,13.968750953674316
1697611905792638500,19.746638427734375,10.443750381469727,47.13750076293945,14.343750953674316
1697611905812642300,19.766642333984375,9.61875057220459,47.47500228881836,13.856250762939453
1697611905832634600,19.786634521484373,9.412500381469727,47.47500228881836,14.043750762939453
1697611905852631000,19.806631103515624,8.568750381469727,47.28750228881836,13.83750057220459
1697611905872636000,19.826635986328125,7.950000286102295,47.55000305175781,13.83750057220459
1697611905892635400,19.846635498046876,8.0625,47.8125,14.137500762939453
1697611905912623400,19.866623291015625,7.537500381469727,47.73750305175781,14.02500057220459
1697611905932611000,19.886611083984373,6.918750286102295,48.16875076293945,13.83750057220459
1697611905952620800,19.906620849609375,6.600000381469727,48.243751525878906,13.93125057220459
1697611905972612000,19.926612060546876,6.281250476837158,48.35625076293945,14.137500762939453
1697611905992620500,19.94662060546875,5.662500381469727,47.98125076293945,14.21250057220459
1697611906012634400,19.96663427734375,6.506250381469727,47.90625,14.325000762939453
1697611906032629800,19.986629638671875,6.281250476837158,47.8125,14.11875057220459
1697611906052633000,20.006633056640624,6.075000286102295,47.98125076293945,14.11875057220459
1697611906072642800,20.026642822265625,6.506250381469727,47.90625,14.418750762939453
1697611906092646000,20.04664599609375,6.393750190734863,47.8125,14.512500762939453
1697611906112643800,20.066643798828125,7.443750381469727,47.64375305175781,14.21250057220459
1697611906132637700,20.0866376953125,8.58750057220459,47.8125,14.043750762939453
1697611906152640300,20.10664013671875,9,47.38125228881836,14.437500953674316
1697611906172631600,20.126631591796876,10.143750190734863,47.493751525878906,14.568750381469727
1697611906192638700,20.146638671875,10.856250762939453,47.28750228881836,13.46250057220459
1697611906212640300,20.16664013671875,11.793750762939453,47.56875228881836,13.481250762939453
1697611906232629800,20.186629638671874,12.506250381469727,47.28750228881836,13.08750057220459
1697611906252629000,20.20662890625,13.968750953674316,46.931251525878906,13.18125057220459
1697611906272624000,20.2266240234375,14.981250762939453,47.17500305175781,12.300000190734863
1697611906292644000,20.24664404296875,15.825000762939453,46.91250228881836,12
1697611906312639200,20.26663916015625,16.743751525878906,46.556251525878906,11.30625057220459
1697611906332627500,20.28662744140625,17.775001525878906,46.462501525878906,11.11875057220459
1697611906352636700,20.30663671875,19.631250381469727,45.82500076293945,10.106250762939453
1697611906372640300,20.32664013671875,20.55000114440918,45.78750228881836,8.90625
1697611906392638700,20.346638671875,20.53125,45.78750228881836,8.512500762939453
1697611906412644600,20.36664453125,21.5625,45.13125228881836,7.181250095367432
1697611906432633600,20.386633544921875,22.481250762939453,44.94375228881836,6.281250476837158
1697611906452643300,20.406643310546876,24.431251525878906,44.13750076293945,5.681250095367432
1697611906472647000,20.42664697265625,25.687501907348633,43.6875,5.493750095367432
1697611906492637700,20.4466376953125,27.337501525878906,42.69375228881836,4.875
1697611906512636200,20.46663623046875,27.95625114440918,42.618751525878906,4.893750190734863
1697611906532640800,20.486640869140626,28.668750762939453,42.16875076293945,4.275000095367432
1697611906552640000,20.506639892578125,29.400001525878906,41.19375228881836,4.762500286102295
1697611906572652500,20.526652587890624,30.337501525878906,40.85625076293945,4.575000286102295
1697611906592644400,20.546644287109373,31.162500381469727,40.05000305175781,4.668750286102295
1697611906612634400,20.56663427734375,31.368751525878906,39.431251525878906,4.650000095367432
1697611906632622300,20.586622314453123,31.875001907348633,39.26250076293945,4.556250095367432
1697611906652620000,20.6066201171875,31.98750114440918,38.8125,4.743750095367432
1697611906672622300,20.626622314453126,32.212501525878906,39.01875305175781,5.25
1697611906692631800,20.6466318359375,32.306251525878906,38.83125305175781,5.043750286102295
1697611906712635400,20.666635498046876,32.10000228881836,38.56875228881836,5.231250286102295
1697611906732634000,20.686634033203124,31.89375114440918,38.73750305175781,5.34375
1697611906752640000,20.706639892578124,32.212501525878906,38.493751525878906,5.831250190734863
1697611906772640500,20.726640625,32.32500076293945,38.775001525878906,6.262500286102295
1697611906792636700,20.74663671875,31.593751907348633,38.94375228881836,6.150000095367432
1697611906812633000,20.766633056640625,32.00625228881836,38.85000228881836,5.943750381469727
1697611906832628000,20.7866279296875,31.481250762939453,39.28125,6.056250095367432
1697611906852633300,20.80663330078125,31.481250762939453,38.868751525878906,6.356250286102295
1697611906872626700,20.826626708984374,31.70625114440918,38.587501525878906,6.431250095367432
1697611906892628700,20.846628662109374,31.500001907348633,38.681251525878906,6.656250476837158
1697611906912629800,20.866629638671874,31.481250762939453,39.03750228881836,6.356250286102295
1697611906932615400,20.886615478515626,31.818750381469727,38.775001525878906,6.450000286102295
1697611906952614100,20.9066142578125,31.387500762939453,39.11250305175781,6.150000095367432
1697611906972607000,20.92660693359375,31.275001525878906,38.587501525878906,6.131250381469727
1697611906992610000,20.946610107421876,31.275001525878906,39.28125,6.056250095367432
1697611907012615700,20.96661572265625,31.181251525878906,39.01875305175781,6.056250095367432
1697611907032616000,20.986615966796876,30.356250762939453,39.11250305175781,6.037500381469727
1697611907052623600,21.00662353515625,31.087501525878906,38.94375228881836,6.131250381469727
1697611907072636700,21.02663671875,31.275001525878906,38.681251525878906,6.337500095367432
1697611907092642600,21.046642578125,31.70625114440918,38.51250076293945,6.637500286102295
1697611907112642600,21.066642578125,31.087501525878906,38.32500076293945,6.825000286102295
1697611907132637700,21.0866376953125,32.32500076293945,38.15625,6.956250190734863
1697611907152641000,21.10664111328125,32.75625228881836,37.556251525878906,7.443750381469727
1697611907172642600,21.126642578125,32.75625228881836,37.462501525878906,7.237500190734863
1697611907192654000,21.146654052734377,33.58125305175781,36.67500305175781,7.537500381469727
1697611907212652300,21.16665234375,34.10625076293945,36.67500305175781,7.425000190734863
1697611907232646100,21.186646240234374,34.5,35.962501525878906,7.125000476837158
1697611907252640500,21.206640625,34.51875305175781,35.4375,7.406250476837158
1697611907272632000,21.226632080078126,34.61250305175781,35.36250305175781,7.912500381469727
1697611907292639000,21.246638916015623,34.40625,35.36250305175781,8.21250057220459
1697611907312623000,21.266623046875,34.21875,35.118751525878906,9.018750190734863
1697611907332614400,21.286614501953125,33.618751525878906,35.400001525878906,9.918750762939453
1697611907352626700,21.306626708984375,33.50625228881836,34.89375305175781,10.818750381469727
1697611907372632800,21.3266328125,33.50625228881836,34.89375305175781,10.5
1697611907392633300,21.34663330078125,33.618751525878906,34.89375305175781,10.5
1697611907412641000,21.36664111328125,34.44375228881836,34.61250305175781,10.21875
1697611907432631600,21.386631591796874,34.21875,33.97500228881836,9.675000190734863
1697611907452642300,21.406642333984376,35.15625,33.11250305175781,10.27500057220459
1697611907472646700,21.426646728515625,35.681251525878906,32.94375228881836,10.875
1697611907492646000,21.44664599609375,36,32.51250076293945,10.987500190734863
1697611907512633600,21.466633544921876,36.618751525878906,31.462501525878906,11.268750190734863
1697611907532638700,21.486638671875,36.63750076293945,30.76875114440918,11.831250190734863
1697611907552638700,21.506638671875,37.368751525878906,29.625001907348633,12.52500057220459
1697611907572638200,21.52663818359375,38.08125305175781,28.668750762939453,13.125000953674316
1697611907592633900,21.5466337890625,38.10000228881836,28.42500114440918,13.818750381469727
1697611907612627000,21.566626953125,37.6875,27.618751525878906,13.575000762939453
1697611907632620800,21.586620849609375,37.78125,27.356250762939453,14.081250190734863
1697611907652610600,21.606610595703124,38.19375228881836,27.262500762939453,13.575000762939453
1697611907672615700,21.62661572265625,38.625,27.543750762939453,14.193750381469727
1697611907692627500,21.64662744140625,38.41875076293945,27.093751907348633,13.875000953674316
1697611907712632800,21.6666328125,38.41875076293945,26.73750114440918,13.968750953674316
1697611907732632800,21.6866328125,38.306251525878906,26.306251525878906,14.062500953674316
1697611907752639700,21.7066396484375,38.94375228881836,25.89375114440918,15.075000762939453
1697611907772641000,21.72664111328125,39.46875,25.368751525878906,15.356250762939453
1697611907792637400,21.746637451171875,39.67500305175781,24.937501907348633,15.956250190734863
1697611907812641500,21.7666416015625,39.35625076293945,24.562501907348633,15.33750057220459
1697611907832633000,21.786633056640625,39.243751525878906,24.11250114440918,15.318750381469727
1697611907852625700,21.806625732421875,39.5625,24.468751907348633,15.131250381469727
1697611907872620300,21.826620361328125,38.60625076293945,24.093751907348633,14.718750953674316
1697611907892624100,21.8466240234375,40.38750076293945,23.325000762939453,15.52500057220459
1697611907912615700,21.86661572265625,40.087501525878906,23.231250762939453,15.61875057220459
1697611907932605200,21.886605224609376,39.97500228881836,22.650001525878906,16.59375
1697611907952605000,21.90660498046875,40.5,22.462501525878906,16.293750762939453
1697611907972611800,21.92661181640625,40.57500076293945,23.193750381469727,13.593750953674316
1697611907992614700,21.94661474609375,41.19375228881836,23.83125114440918,14.343750953674316
1697611908012619500,21.96661962890625,40.275001525878906,24.20625114440918,15.24375057220459
1697611908032619300,21.986619384765625,39.65625,24.993751525878906,14.943750381469727
1697611908052626200,22.006626220703126,39.97500228881836,25.087501525878906,14.96250057220459
1697611908072638700,22.026638671875,38.73750305175781,25.087501525878906,15.24375057220459
1697611908092644000,22.04664404296875,39.35625076293945,25.912500381469727,15.787500381469727
1697611908112643600,22.0666435546875,38.64375305175781,26.775001525878906,15.393750190734863
1697611908132638200,22.08663818359375,38.118751525878906,26.793750762939453,15.693750381469727
1697611908152641300,22.106641357421875,37.70625305175781,28.012500762939453,15.018750190734863
1697611908172644400,22.126644287109375,37.78125,28.781251907348633,13.818750381469727
1697611908192644400,22.146644287109375,37.76250076293945,28.743751525878906,12.61875057220459
1697611908212644600,22.16664453125,37.85625076293945,30.056251525878906,11.34375
1697611908232632800,22.1866328125,37.23750305175781,30.825000762939453,10.83750057220459
1697611908252630500,22.206630615234374,37.33125305175781,31.70625114440918,10.36875057220459
1697611908272625200,22.226625244140624,37.125,32.32500076293945,10.08750057220459
1697611908292628500,22.24662841796875,37.01250076293945,32.92500305175781,9.487500190734863
1697611908312627200,22.266627197265624,36.1875,33.63750076293945,9.393750190734863
1697611908332616700,22.28661669921875,35.775001525878906,34.06875228881836,9.09375
1697611908352617700,22.30661767578125,34.837501525878906,34.85625076293945,8.90625
1697611908372626400,22.32662646484375,35.26875305175781,35.306251525878906,8.925000190734863
1697611908392629200,22.346629150390626,34.01250076293945,36.16875076293945,8.4375
1697611908412638500,22.366638427734376,33.375,36.86250305175781,7.725000381469727
1697611908432630300,22.38663037109375,32.53125,38.0625,6.731250286102295
1697611908452642000,22.40664208984375,32.025001525878906,39.056251525878906,7.068750381469727
1697611908472647000,22.42664697265625,30.76875114440918,39.82500076293945,6.262500286102295
1697611908492646400,22.446646484375,29.92500114440918,40.16250228881836,5.456250190734863
1697611908512635000,22.466634765625,29.418750762939453,40.78125,5.568750381469727
1697611908532628500,22.48662841796875,28.687501907348633,41.56875228881836,5.0625
1697611908552630800,22.506630859375,28.462501525878906,42,4.78125
1697611908572640300,22.52664013671875,28.481250762939453,42.35625076293945,4.987500190734863
1697611908592635600,22.5466357421875,27.01875114440918,42.60000228881836,4.368750095367432
1697611908612630800,22.566630859375,27.637500762939453,42.86250305175781,4.293750286102295
1697611908632638000,22.586637939453126,26.606250762939453,42.806251525878906,5.287500381469727
1697611908652621800,22.606621826171875,26.193750381469727,43.57500076293945,4.59375
1697611908672624000,22.6266240234375,25.89375114440918,43.76250076293945,4.987500190734863
1697611908692633000,22.646633056640624,25.368751525878906,44.118751525878906,4.78125
1697611908712636400,22.666636474609376,24.637500762939453,44.55000305175781,4.800000190734863
1697611908732634600,22.686634521484375,24.431251525878906,44.64375305175781,4.893750190734863
1697611908752640500,22.706640625,23.90625,45.337501525878906,4.518750190734863
1697611908772641000,22.72664111328125,23.493751525878906,45.69375228881836,4.518750190734863
1697611908792648200,22.746648193359373,23.287500381469727,45.97500228881836,4.725000381469727
1697611908812649500,22.7666494140625,22.668750762939453,45.58125305175781,3.9937500953674316
1697611908832647400,22.7866474609375,22.33125114440918,46.01250076293945,3.6937501430511475
1697611908852645400,22.806645263671875,21.712501525878906,46.44375228881836,2.793750047683716
1697611908872646000,22.82664599609375,21.712501525878906,46.368751525878906,2.981250047683716
1697611908892642000,22.84664208984375,21.918750762939453,46.53750228881836,2.5875000953674316
1697611908912627700,22.866627685546874,21.806251525878906,46.6875,1.8937500715255737
1697611908932612400,22.8866123046875,22.012500762939453,46.76250076293945,1.6875001192092896
1697611908952608000,22.90660791015625,21.787500381469727,46.837501525878906,1.0875000953674316
1697611908972630800,22.926630859375,21.881250381469727,46.66875076293945,0.8812500238418579
1697611908992627700,22.946627685546876,22.931251525878906,46.3125,0.8812500238418579
1697611909012628000,22.9666279296875,23.625,45.91875076293945,-0.5250000357627869
1697611909032623900,22.986623779296874,23.92500114440918,45.46875,-1.03125
1697611909052628500,23.00662841796875,24.131250381469727,45.35625076293945,-1.7437500953674316
1697611909072639000,23.026638916015624,24.225000381469727,45.60000228881836,-3.0375001430511475
1697611909092643000,23.04664306640625,24.20625114440918,44.868751525878906,-3.8625001907348633
1697611909112641800,23.066641845703124,24.618751525878906,45.39375305175781,-3.9562501907348633
1697611909132636400,23.086636474609374,25.23750114440918,45.54375076293945,-5.043750286102295
1697611909152639200,23.10663916015625,24.600000381469727,45.1875,-5.268750190734863
1697611909172640800,23.126640869140626,24.693750381469727,44.83125305175781,-5.175000190734863
1697611909192647700,23.146647705078124,24.693750381469727,45.09375,-5.362500190734863
1697611909212647000,23.16664697265625,24.787500381469727,44.8125,-5.887500286102295
1697611909232642000,23.18664208984375,24.900001525878906,45.07500076293945,-6.075000286102295
1697611909252638700,23.206638671875,25.312501907348633,44.98125076293945,-6.375000476837158
1697611909272631000,23.226631103515626,25.293750762939453,44.625,-6.487500190734863
1697611909292632000,23.246632080078125,26.137500762939453,44.45625305175781,-6.881250381469727
1697611909312629200,23.266629150390624,26.325000762939453,43.556251525878906,-6.806250095367432
1697611909332611800,23.28661181640625,27.468751907348633,43.181251525878906,-7.912500381469727
1697611909352613400,23.30661328125,28.181251525878906,42.46875,-8.11875057220459
1697611909372622800,23.326622802734374,28.89375114440918,42.375,-8.512500762939453
1697611909392626200,23.346626220703126,29.006250381469727,41.85000228881836,-8.4375
1697611909412636200,23.36663623046875,29.812501907348633,41.38125228881836,-9.037500381469727
1697611909432628500,23.38662841796875,30.543750762939453,41.13750076293945,-8.737500190734863
1697611909452640800,23.406640869140624,31.80000114440918,40.35000228881836,-8.325000762939453
1697611909472646400,23.426646484375,31.593751907348633,39.900001525878906,-8.643750190734863
1697611909492646000,23.44664599609375,31.89375114440918,38.83125305175781,-8.568750381469727
1697611909512633900,23.4666337890625,33.243751525878906,38.41875076293945,-8.268750190734863
1697611909532637000,23.486636962890625,34.59375,36.91875076293945,-8.081250190734863
1697611909552637700,23.5066376953125,35.00625228881836,36.73125076293945,-8.287500381469727
1697611909572645400,23.526645263671874,35.83125305175781,35.868751525878906,-7.781250476837158
1697611909592640500,23.546640625,37.20000076293945,33.84375,-6.918750286102295
1697611909612631000,23.566631103515626,37.837501525878906,33.50625228881836,-6.318750381469727
1697611909632627700,23.586627685546876,39.1875,31.668750762939453,-5.53125
1697611909652625200,23.606625244140623,39.806251525878906,31.256250381469727,-4.837500095367432
1697611909672619000,23.626618896484374,40.53750228881836,29.381250381469727,-4.575000286102295
1697611909692618000,23.646617919921876,40.95000076293945,28.51875114440918,-4.087500095367432
1697611909712625000,23.666625,41.47500228881836,27.900001525878906,-4.3125
1697611909732626400,23.68662646484375,42.28125,26.381250381469727,-4.331250190734863
1697611909752635000,23.706634765625,42.82500076293945,26.043750762939453,-3.937500238418579
1697611909772637400,23.726637451171875,42.69375228881836,24.525001525878906,-4.275000095367432
1697611909792646400,23.746646484375,43.125,24.093751907348633,-4.087500095367432
1697611909812649000,23.76664892578125,43.51875305175781,23.568750381469727,-4.40625
1697611909832646100,23.786646240234376,43.72500228881836,23.193750381469727,-4.40625
1697611909852643300,23.806643310546875,44.34375,22.762500762939453,-4.40625
1697611909872644600,23.82664453125,43.931251525878906,22.481250762939453,-4.725000381469727
1697611909892641500,23.8466416015625,43.72500228881836,22.575000762939453,-4.725000381469727
1697611909912646100,23.866646240234374,43.40625,22.556251525878906,-5.137500286102295
1697611909932627500,23.88662744140625,44.025001525878906,23.006250381469727,-5.212500095367432
1697611909952621800,23.906621826171875,43.70625305175781,22.89375114440918,-5.831250190734863
1697611909972631300,23.92663134765625,43.5,23.606250762939453,-6.206250190734863
1697611909992626200,23.946626220703124,42.993751525878906,24.056251525878906,-5.700000286102295
1697611910012626200,23.966626220703127,43.087501525878906,24.918750762939453,-6.787500381469727
1697611910032622000,23.9866220703125,42.46875,25.61250114440918,-7.087500095367432
1697611910052626400,24.00662646484375,41.41875076293945,26.325000762939453,-6.768750190734863
1697611910072637400,24.026637451171876,41.32500076293945,27.11250114440918,-6.956250190734863
1697611910092641800,24.046641845703125,40.38750076293945,28.781251907348633,-7.631250381469727
1697611910112640800,24.066640869140624,40.06875228881836,29.400001525878906,-8.02500057220459
1697611910132635600,24.0866357421875,38.60625076293945,30.881250381469727,-8.49375057220459
1697611910152638700,24.106638671875,37.57500076293945,31.856250762939453,-8.49375057220459
1697611910172648000,24.12664794921875,37.275001525878906,33,-8.662500381469727
1697611910192646700,24.146646728515623,35.60625076293945,34.40625,-9.356250762939453
1697611910212646000,24.16664599609375,34.462501525878906,35.64375305175781,-9.131250381469727
1697611910232641300,24.186641357421873,32.90625,36.95625305175781,-9.61875057220459
1697611910252637700,24.2066376953125,31.668750762939453,38.10000228881836,-9.71250057220459
1697611910272630300,24.22663037109375,30.412500381469727,39.13125228881836,-10.293750762939453
1697611910292632300,24.24663232421875,28.856250762939453,40.368751525878906,-10.59375
1697611910312648700,24.266648681640625,28.031251907348633,41.17500305175781,-10.481250762939453
1697611910332629500,24.28662939453125,26.568750381469727,41.94375228881836,-11.381250381469727
1697611910352626400,24.30662646484375,25.33125114440918,42.75,-10.875
1697611910372631800,24.3266318359375,23.043750762939453,43.70625305175781,-10.987500190734863
1697611910392632000,24.346632080078123,22.837501525878906,43.89375305175781,-10.987500190734863
1697611910412639500,24.366639404296876,20.962501525878906,45.01875305175781,-11.381250381469727
1697611910432630000,24.386630126953126,20.043750762939453,45.63750076293945,-11.268750190734863
1697611910452641000,24.40664111328125,19.106250762939453,46.087501525878906,-11.175000190734863
1697611910472645400,24.426645263671876,17.55000114440918,46.51875305175781,-11.081250190734863
1697611910492644600,24.44664453125,17.34375,46.96875,-10.875
1697611910512632000,24.466632080078124,16.912500381469727,46.51875305175781,-11.49375057220459
1697611910532621600,24.48662158203125,16.837501525878906,46.70625305175781,-10.6875
1697611910552625700,24.506625732421874,16.725000381469727,46.78125,-11.081250190734863
1697611910572636200,24.52663623046875,16.725000381469727,46.61250305175781,-10.987500190734863
1697611910592633000,24.546633056640626,17.137500762939453,46.53750228881836,-10.78125
1697611910612626200,24.566626220703125,17.568750381469727,46.70625305175781,-10.46250057220459
1697611910632616700,24.58661669921875,18.39375114440918,46.63125228881836,-10.162500381469727
1697611910652617200,24.6066171875,19.03125,46.20000076293945,-9.862500190734863
1697611910672617000,24.626616943359377,19.350000381469727,46.743751525878906,-9.43125057220459
1697611910692612400,24.6466123046875,20.17500114440918,46.03125,-9.33750057220459
1697611910712621300,24.666621337890625,20.493751525878906,45.78750228881836,-9.131250381469727
1697611910732624400,24.686624267578125,21.84375,45.26250076293945,-8.831250190734863
1697611910752634000,24.706634033203127,22.256250381469727,45.1875,-8.831250190734863
1697611910772637400,24.726637451171875,23.193750381469727,45.26250076293945,-9.112500190734863
1697611910792635600,24.7466357421875,23.306251525878906,44.306251525878906,-8.643750190734863
1697611910812641300,24.766641357421875,24.86250114440918,44.493751525878906,-8.418750762939453
1697611910832641000,24.78664111328125,25.575000762939453,43.5,-8.925000190734863
1697611910852640000,24.806639892578126,26.306251525878906,43.23750305175781,-9.037500381469727
1697611910872638500,24.826638427734373,27.225000381469727,42.35625076293945,-9.037500381469727
1697611910892637400,24.846637451171876,27.95625114440918,41.90625,-9.356250762939453
1697611910912632600,24.866632568359375,28.98750114440918,41.19375228881836,-9.24375057220459
1697611910932617500,24.886617431640627,29.793750762939453,40.556251525878906,-10.36875057220459
1697611910952612600,24.906612548828125,30.618751525878906,39.58125305175781,-10.78125
1697611910972616400,24.926616455078126,31.23750114440918,38.493751525878906,-11.418750762939453
1697611910992616200,24.9466162109375,33.20625305175781,37.70625305175781,-11.21250057220459
1697611911012613600,24.966613525390624,33.91875076293945,36.11250305175781,-11.456250190734863
1697611911032614000,24.98661376953125,35.17500305175781,35.4375,-10.631250381469727
1697611911052621300,25.006621337890625,36.20625305175781,34.89375305175781,-11.15625
1697611911072635000,25.026634765625,37.66875076293945,33.056251525878906,-10.162500381469727
1697611911092641000,25.04664111328125,38.38125228881836,31.912500381469727,-9.675000190734863
1697611911112641000,25.06664111328125,39.431251525878906,30.187501907348633,-8.512500762939453
1697611911132636700,25.08663671875,39.97500228881836,29.681251525878906,-7.406250476837158
1697611911152640000,25.106639892578126,41.306251525878906,27.712501525878906,-7.743750095367432
1697611911172649700,25.126649658203124,41.625,26.756250381469727,-7.068750381469727
1697611911192647000,25.14664697265625,42.5625,25.087501525878906,-6.881250381469727
1697611911212653000,25.166653076171876,43.06875228881836,24.900001525878906,-7.500000476837158
1697611911232647000,25.18664697265625,43.38750076293945,24.187501907348633,-7.406250476837158
1697611911252649000,25.20664892578125,43.98750305175781,23.64375114440918,-7.818750381469727
1697611911272638700,25.226638671875,44.306251525878906,22.51875114440918,-6.937500476837158
1697611911292642000,25.24664208984375,44.306251525878906,22.51875114440918,-7.331250190734863
1697611911312645600,25.266645751953124,44.00625228881836,22.33125114440918,-7.256250381469727
1697611911332624000,25.286623779296875,44.625,22.61250114440918,-7.143750190734863
1697611911352621600,25.30662158203125,44.53125,22.61250114440918,-6.637500286102295
1697611911372628000,25.3266279296875,44.212501525878906,22.875,-6.937500476837158
1697611911392629200,25.346629150390626,43.59375,23.92500114440918,-7.012500286102295
1697611911412637400,25.366637451171876,43.181251525878906,24.637500762939453,-6.993750095367432
1697611911432639700,25.3866396484375,42.45000076293945,25.856250762939453,-7.781250476837158
1697611911452648700,25.406648681640625,41.83125305175781,27.187501907348633,-7.950000286102295
1697611911472651500,25.426651611328126,40.275001525878906,29.118751525878906,-8.4375
1697611911492649000,25.44664892578125,39.54375076293945,30.000001907348633,-8.71875
1697611911512643300,25.466643310546875,39.337501525878906,31.668750762939453,-9.075000762939453
1697611911532638200,25.48663818359375,37.462501525878906,33.16875076293945,-9.5625
1697611911552637700,25.5066376953125,36.22500228881836,34.38750076293945,-9.75
1697611911572644600,25.52664453125,34.875,35.88750076293945,-9.825000762939453
1697611911592638200,25.54663818359375,34.06875228881836,37.06875228881836,-9.300000190734863
1697611911612629000,25.56662890625,32.28750228881836,38.53125,-9.881250381469727
1697611911632618000,25.586617919921874,30.95625114440918,39.95625305175781,-9.975000381469727
1697611911652636400,25.606636474609374,28.968751907348633,41.08125305175781,-10.46250057220459
1697611911672628500,25.62662841796875,27.637500762939453,42.243751525878906,-10.350000381469727
1697611911692636200,25.64663623046875,26.812501907348633,43.125,-9.825000762939453
1697611911712638500,25.666638427734377,25.350000381469727,43.91250228881836,-10.237500190734863
1697611911732636000,25.686635986328124,24.318750381469727,44.79375076293945,-10.631250381469727
1697611911752641000,25.70664111328125,22.23750114440918,45.13125228881836,-10.856250762939453
1697611911772640800,25.726640869140624,21.39375114440918,45.91875076293945,-11.15625
1697611911792636700,25.74663671875,19.931251525878906,46.16250228881836,-11.362500190734863
1697611911812640500,25.766640625,19.106250762939453,46.61250305175781,-11.568750381469727
1697611911832639200,25.78663916015625,18.806251525878906,46.875,-11.456250190734863
1697611911852638000,25.806637939453125,18.375,46.95000076293945,-11.96250057220459
1697611911872642300,25.826642333984374,18.056251525878906,47.212501525878906,-12.05625057220459
1697611911892640000,25.846639892578125,18.356250762939453,46.40625,-12.487500190734863
1697611911912645400,25.866645263671874,18.881250381469727,46.66875076293945,-12.375000953674316
1697611911932628700,25.886628662109374,19.087501525878906,46.3125,-12.881250381469727
1697611911952620500,25.90662060546875,19.59375,46.556251525878906,-13.36875057220459
1697611911972621800,25.926621826171875,20.212501525878906,45.39375305175781,-13.800000190734863
1697611911992619500,25.94661962890625,20.325000762939453,45.50625228881836,-13.593750953674316
1697611912012618200,25.9666181640625,21.375,45.69375228881836,-13.162500381469727
1697611912032616400,25.986616455078124,21.975000381469727,44.775001525878906,-14.100000381469727
1697611912052622800,26.006622802734373,22.387500762939453,44.53125,-13.481250762939453
1697611912072635100,26.02663525390625,23.418750762939453,44.08125305175781,-14.081250190734863
1697611912092640800,26.046640869140624,24.150001525878906,43.556251525878906,-14.006250381469727
1697611912112640500,26.066640625,25.70625114440918,43.01250076293945,-13.987500190734863
1697611912132636000,26.086635986328126,26.64375114440918,42.58125305175781,-13.987500190734863
1697611912152639500,26.106639404296875,27.150001525878906,41.962501525878906,-14.006250381469727
1697611912172637700,26.1266376953125,28.912500381469727,40.556251525878906,-13.912500381469727
1697611912192636000,26.146635986328125,29.943750381469727,40.125,-13.912500381469727
1697611912212633900,26.1666337890625,31.818750381469727,38.34375,-14.137500762939453
1697611912232632600,26.186632568359375,32.64375305175781,37.72500228881836,-13.93125057220459
1697611912252631300,26.20663134765625,34.20000076293945,35.962501525878906,-13.762500762939453
1697611912272626200,26.226626220703125,35.55000305175781,35.00625228881836,-13.46250057220459
1697611912292631800,26.2466318359375,36.1875,34.14375305175781,-12.675000190734863
1697611912312629800,26.266629638671876,37.63125228881836,31.856250762939453,-12.225000381469727
1697611912332612900,26.28661279296875,39.20625305175781,31.087501525878906,-11.21250057220459
1697611912352609500,26.306609619140627,40.44375228881836,28.70625114440918,-11.15625
1697611912372620300,26.326620361328125,41.0625,27.76875114440918,-9.862500190734863
1697611912392624600,26.346624755859374,42.31875228881836,26.08125114440918,-9.28125
1697611912412635600,26.3666357421875,42.63750076293945,24.95625114440918,-8.8125
1697611912432639500,26.386639404296876,43.25625228881836,24.075000762939453,-8.53125
1697611912452649700,26.406649658203126,43.96875,22.818750381469727,-9.05625057220459
1697611912472653000,26.426653076171874,43.66875076293945,22.03125,-8.77500057220459
1697611912492650800,26.446650634765625,44.38125228881836,21.58125114440918,-8.68125057220459
1697611912512644600,26.46664453125,44.493751525878906,21.075000762939453,-8.287500381469727
1697611912532640000,26.486639892578125,44.587501525878906,21.056251525878906,-8.49375057220459
1697611912552646000,26.50664599609375,44.08125305175781,21.787500381469727,-8.175000190734863
1697611912572639500,26.526639404296876,44.28750228881836,22.23750114440918,-8.0625
1697611912592641800,26.546641845703125,43.76250076293945,23.793750762939453,-8.925000190734863
1697611912612631800,26.5666318359375,42.95625305175781,25.031251907348633,-8.8125
1697611912632620000,26.5866201171875,42.31875228881836,25.818750381469727,-9.300000190734863
1697611912652629200,26.606629150390624,41.38125228881836,27.131250381469727,-9.581250190734863
1697611912672622300,26.626622314453126,40.35000228881836,28.89375114440918,-10.143750190734863
1697611912692626200,26.646626220703126,38.98125076293945,30.11250114440918,-10.631250381469727
1697611912712631000,26.666631103515623,37.85625076293945,31.875001907348633,-11.006250381469727
1697611912732630800,26.686630859375,36.618751525878906,33.54375076293945,-11.381250381469727
1697611912752637700,26.7066376953125,35.88750076293945,34.80000305175781,-11.15625
