time,seconds_elapsed,z,y,x
1697610977728536600,0.20153662109375,-49.20000076293945,-8.11875057220459,-3.656250238418579
1697610977748541700,0.221541748046875,-50.437503814697266,-8.02500057220459,-3.562500238418579
1697610977768552700,0.241552734375,-50.250003814697266,-7.425000190734863,-4.443750381469727
1697610977788574200,0.26157421875,-50.868751525878906,-7.162500381469727,-4.256250381469727
1697610977808601600,0.2816015625,-50.13750076293945,-7.068750381469727,-4.443750381469727
1697610977828635100,0.30163525390625,-50.437503814697266,-6.956250190734863,-3.731250047683716
1697610977848663800,0.321663818359375,-50.13750076293945,-7.312500476837158,-3.843750238418579
1697610977868676000,0.341676025390625,-50.437503814697266,-7.837500095367432,-3.168750047683716
1697610977888696300,0.3616962890625,-50.437503814697266,-8.193750381469727,-3.375000238418579
1697610977908687000,0.38168701171875,-50.343753814697266,-8.550000190734863,-3.281250238418579
1697610977928691500,0.40169140625,-50.13750076293945,-8.90625,-3.375000238418579
1697610977948700000,0.421699951171875,-50.13750076293945,-8.90625,-3.5812501907348633
1697610977968701000,0.441700927734375,-50.45625305175781,-8.475000381469727,-3.4875001907348633
1697610977988707600,0.46170751953125,-50.26875305175781,-9.206250190734863,-4.5
1697610978008696000,0.481696044921875,-49.95000076293945,-9.375,-4.706250190734863
1697610978028704500,0.50170458984375,-49.95000076293945,-9.112500190734863,-4.893750190734863
1697610978048700000,0.521699951171875,-50.062503814697266,-8.86875057220459,-5.700000286102295
1697610978068686800,0.541686767578125,-49.85625076293945,-8.77500057220459,-5.081250190734863
1697610978088695300,0.5616953125,-49.968753814697266,-8.700000762939453,-5.700000286102295
1697610978108690200,0.581690185546875,-49.85625076293945,-8.68125057220459,-5.193750381469727
1697610978128682000,0.601681884765625,-49.95000076293945,-8.418750762939453,-5.175000190734863
1697610978148682800,0.621682861328125,-49.85625076293945,-7.800000190734863,-5.475000381469727
1697610978168668200,0.641668212890625,-50.56875228881836,-8.0625,-5.081250190734863
1697610978188664000,0.6616640625,-50.85000228881836,-7.312500476837158,-3.1500000953674316
1697610978208664800,0.681664794921875,-50.23125076293945,-7.143750190734863,-3.637500047683716
1697610978228673500,0.701673583984375,-50.025001525878906,-7.387500286102295,-3.0375001430511475
1697610978248676400,0.72167626953125,-50.025001525878906,-7.650000095367432,-3.0375001430511475
1697610978268674600,0.741674560546875,-50.531253814697266,-8.175000190734863,-2.8687500953674316
1697610978288680400,0.761680419921875,-50.32500076293945,-8.71875,-2.887500047683716
1697610978308673500,0.781673583984375,-49.837501525878906,-9.52500057220459,-3.3937501907348633
1697610978328682800,0.801682861328125,-49.931251525878906,-9.90000057220459,-4.21875
1697610978348685600,0.821685546875,-49.42500305175781,-9.99375057220459,-4.612500190734863
1697610978368676000,0.841676025390625,-49.218753814697266,-9.99375057220459,-4.612500190734863
1697610978388667600,0.861667724609375,-50.04375076293945,-9.99375057220459,-4.012500286102295
1697610978408673500,0.881673583984375,-49.63125228881836,-9.825000762939453,-4.518750190734863
1697610978428685300,0.901685302734375,-49.85625076293945,-9.9375,-5.325000286102295
1697610978448690400,0.9216904296875,-49.33125305175781,-10.125,-5.831250190734863
1697610978468682200,0.94168212890625,-50.062503814697266,-9.9375,-5.737500190734863
1697610978488683000,0.96168310546875,-49.33125305175781,-9.506250381469727,-6.018750190734863
1697610978508679200,0.98167919921875,-49.14375305175781,-9.24375057220459,-6.318750381469727
1697610978528672000,1.001672119140625,-49.66875076293945,-8.625,-6.600000381469727
1697610978548681200,1.02168115234375,-49.781253814697266,-8.475000381469727,-7.612500190734863
1697610978568673500,1.041673583984375,-49.57500076293945,-8.381250381469727,-7.893750190734863
1697610978588685800,1.061685791015625,-49.462501525878906,-8.58750057220459,-8.11875057220459
1697610978608691500,1.08169140625,-50.41875076293945,-8.137500762939453,-8.006250381469727
1697610978628691500,1.10169140625,-50.00625228881836,-7.706250190734863,-8.49375057220459
1697610978648698000,1.121697998046875,-49.06875228881836,-7.162500381469727,-8.475000381469727
1697610978668688100,1.141688232421875,-49.687503814697266,-6.562500476837158,-9.168750762939453
1697610978688687000,1.16168701171875,-49.48125076293945,-6.393750190734863,-9.768750190734863
1697610978708686000,1.18168603515625,-49.38750076293945,-6.131250381469727,-9.84375
1697610978728695600,1.201695556640625,-49.89375305175781,-5.868750095367432,-9.956250190734863
1697610978748703200,1.221703125,-49.70625305175781,-5.700000286102295,-10.256250381469727
1697610978768693800,1.24169384765625,-49.48125076293945,-4.987500190734863,-9.918750762939453
1697610978788686300,1.261686279296875,-49.70625305175781,-5.175000190734863,-10.125
1697610978808675600,1.281675537109375,-49.181251525878906,-5.34375,-10.237500190734863
1697610978828684000,1.30168408203125,-49.275001525878906,-5.512500286102295,-10.237500190734863
1697610978848678700,1.3216787109375,-49.181251525878906,-5.4375,-10.537500381469727
1697610978868676900,1.3416767578125,-49.70625305175781,-5.793750286102295,-10.443750381469727
1697610978888683300,1.361683349609375,-49.29375076293945,-5.90625,-11.0625
1697610978908676600,1.381676513671875,-48.562503814697266,-5.887500286102295,-10.537500381469727
1697610978928686300,1.401686279296875,-48.97500228881836,-6.843750476837158,-10.27500057220459
1697610978948690000,1.42168994140625,-48.76875305175781,-7.200000286102295,-10.08750057220459
1697610978968688600,1.441688720703125,-48.656253814697266,-7.106250286102295,-9.975000381469727
1697610978988694800,1.46169482421875,-48.97500228881836,-7.387500286102295,-10.08750057220459
1697610979008695000,1.481695068359375,-48.88125228881836,-7.837500095367432,-10.200000762939453
1697610979028702200,1.5017021484375,-49.63125228881836,-8.043750762939453,-11.831250190734863
1697610979048696000,1.521696044921875,-48.60000228881836,-7.968750476837158,-12.112500190734863
1697610979068694500,1.541694580078125,-47.775001525878906,-8.081250190734863,-13.218750953674316
1697610979088700400,1.561700439453125,-48.03750228881836,-7.350000381469727,-16.23750114440918
1697610979108693200,1.581693359375,-47.94375228881836,-7.031250476837158,-17.53125
1697610979128683300,1.601683349609375,-45.69375228881836,-6.487500190734863,-20.512500762939453
1697610979148683000,1.62168310546875,-46.14375305175781,-6.093750476837158,-22.931251525878906
1697610979168670700,1.641670654296875,-43.875,-4.368750095367432,-24.86250114440918
1697610979188667000,1.6616669921875,-43.16250228881836,-2.887500047683716,-26.73750114440918
1697610979208666600,1.68166650390625,-42.88125228881836,-1.537500023841858,-28.80000114440918
1697610979228674600,1.701674560546875,-40.72500228881836,0.09375,-31.350000381469727
1697610979248676900,1.7216767578125,-38.04375076293945,0.7875000238418579,-32.8125
1697610979268686000,1.74168603515625,-35.88750076293945,3.918750047683716,-35.71875
1697610979288689200,1.761689208984375,-33.82500076293945,6.468750476837158,-37.01250076293945
1697610979308679400,1.781679443359375,-31.218751907348633,10.78125,-38.47500228881836
1697610979328686600,1.8016865234375,-31.125001907348633,13.950000762939453,-39.39375305175781
1697610979348688100,1.821688232421875,-29.025001525878906,15.843750953674316,-38.8125
1697610979368678400,1.841678466796875,-24.76875114440918,18.056251525878906,-39.58125305175781
1697610979388680200,1.86168017578125,-24.731250762939453,21.075000762939453,-39.712501525878906
1697610979408682500,1.8816826171875,-25.05000114440918,23.025001525878906,-39.86250305175781
1697610979428691500,1.90169140625,-24.693750381469727,24.562501907348633,-38.08125305175781
1697610979448687400,1.921687255859375,-24.58125114440918,25.218751907348633,-36.86250305175781
1697610979468682800,1.941682861328125,-23.64375114440918,25.406251907348633,-37.05000305175781
1697610979488684500,1.9616845703125,-24.881250381469727,27.262500762939453,-36.806251525878906
1697610979508682500,1.9816826171875,-23.006250381469727,26.92500114440918,-36.48750305175781
1697610979528680400,2.001680419921875,-23.606250762939453,28.368751525878906,-35.75625228881836
1697610979548687400,2.021687255859375,-19.96875,29.100000381469727,-35.17500305175781
1697610979568677600,2.041677734375,-17.34375,30.543750762939453,-34.48125076293945
1697610979588677000,2.061677001953125,-16.162500381469727,32.88750076293945,-33.1875
1697610979608673000,2.081673095703125,-15.33750057220459,33.16875076293945,-32.962501525878906
1697610979628677000,2.101677001953125,-14.68125057220459,33.375,-31.650001525878906
1697610979648687600,2.1216875,-15.131250381469727,32.98125076293945,-33.07500076293945
1697610979668680400,2.141680419921875,-15.33750057220459,32.26875305175781,-33.20625305175781
1697610979688683300,2.161683349609375,-15.450000762939453,31.462501525878906,-33.22500228881836
1697610979708688100,2.181688232421875,-15.656250953674316,31.556251525878906,-33.22500228881836
1697610979728691200,2.201691162109375,-15.356250762939453,30.825000762939453,-34.05000305175781
1697610979748700700,2.22170068359375,-14.943750381469727,29.868751525878906,-34.06875228881836
1697610979768692200,2.241692138671875,-14.550000190734863,28.687501907348633,-35.00625228881836
1697610979788685000,2.26168505859375,-14.231250762939453,28.781251907348633,-34.087501525878906
1697610979808675800,2.28167578125,-14.137500762939453,27.993751525878906,-34.3125
1697610979828675300,2.30167529296875,-14.343750953674316,28.162500381469727,-34.3125
1697610979848671000,2.3216708984375,-14.043750762939453,28.068750381469727,-34.91250228881836
1697610979868671700,2.341671630859375,-14.887500762939453,27.787500381469727,-35.34375
1697610979888679700,2.3616796875,-14.043750762939453,28.14375114440918,-35.212501525878906
1697610979908675600,2.381675537109375,-15.075000762939453,27.693750381469727,-35.04375076293945
1697610979928686000,2.40168603515625,-14.68125057220459,27.843751907348633,-36.243751525878906
1697610979948690400,2.4216904296875,-14.362500190734863,27.225000381469727,-36.16875076293945
1697610979968689200,2.441689208984375,-15.206250190734863,26.868751525878906,-36.48750305175781
1697610979988695300,2.4616953125,-15.412500381469727,26.606250762939453,-36.28125
1697610980008695600,2.481695556640625,-15.731250762939453,26.062501907348633,-36.20625305175781
1697610980028695000,2.501695068359375,-16.368751525878906,25.70625114440918,-36.337501525878906
1697610980048694000,2.521694091796875,-16.162500381469727,25.087501525878906,-36.75
1697610980068693200,2.541693359375,-16.368751525878906,25.181251525878906,-36.54375076293945
1697610980088700000,2.561699951171875,-16.14375114440918,24.656251907348633,-36.35625076293945
1697610980108696000,2.581696044921875,-16.575000762939453,24.11250114440918,-36.375
1697610980128686600,2.6016865234375,-15.112500190734863,24.037500381469727,-36.056251525878906
1697610980148686000,2.62168603515625,-15.731250762939453,24.918750762939453,-36.243751525878906
1697610980168670500,2.64167041015625,-14.887500762939453,24.318750381469727,-35.34375
1697610980188668700,2.661668701171875,-13.218750953674316,25.931251525878906,-35.47500228881836
1697610980208668000,2.68166796875,-12.80625057220459,26.568750381469727,-35.13750076293945
1697610980228675300,2.70167529296875,-12.468750953674316,27.731250762939453,-34.29375076293945
1697610980248688600,2.721688720703125,-12.675000190734863,28.968751907348633,-34.462501525878906
1697610980268694800,2.74169482421875,-11.925000190734863,29.343751907348633,-33.54375076293945
1697610980288695300,2.7616953125,-11.71875,29.531251907348633,-33.431251525878906
1697610980308684500,2.7816845703125,-11.71875,30.168750762939453,-33.01875305175781
1697610980328690000,2.80168994140625,-10.668750762939453,31.593751907348633,-32.45625305175781
1697610980348690000,2.82168994140625,-11.475000381469727,32.13750076293945,-31.931251525878906
1697610980368679000,2.841678955078125,-11.15625,33.48750305175781,-31.481250762939453
1697610980388677000,2.861677001953125,-11.34375,33.76875305175781,-30.67500114440918
1697610980408671500,2.88167138671875,-11.137500762939453,34.125,-30.67500114440918
1697610980428663800,2.901663818359375,-11.231250762939453,34.40625,-30.468751907348633
1697610980448665600,2.92166552734375,-10.818750381469727,34.931251525878906,-30.431251525878906
1697610980468664300,2.941664306640625,-11.02500057220459,35.38125228881836,-30.337501525878906
1697610980488686800,2.961686767578125,-10.387500762939453,35.212501525878906,-29.718751907348633
1697610980508683500,2.98168359375,-10.518750190734863,34.743751525878906,-31.031251907348633
1697610980528695000,3.001695068359375,-10.106250762939453,34.01250076293945,-31.556251525878906
1697610980548699400,3.021699462890625,-10.46250057220459,32.212501525878906,-33.13125228881836
1697610980568698400,3.041698486328125,-10.575000762939453,31.293750762939453,-33.86250305175781
1697610980588704300,3.061704345703125,-10.78125,30.225000381469727,-34.20000076293945
1697610980608692700,3.081692626953125,-11.11875057220459,28.98750114440918,-34.44375228881836
1697610980628691000,3.10169091796875,-12.05625057220459,28.162500381469727,-35.08125305175781
1697610980648685300,3.121685302734375,-11.96250057220459,28.162500381469727,-34.78125
1697610980668688400,3.1416884765625,-11.96250057220459,28.162500381469727,-34.78125
1697610980688680200,3.16168017578125,-11.081250190734863,29.981250762939453,-33.41250228881836
1697610980708669700,3.181669677734375,-10.96875,31.856250762939453,-32.53125
1697610980728676000,3.201676025390625,-9.975000381469727,35.83125305175781,-29.587501525878906
1697610980748677600,3.221677734375,-10.55625057220459,37.59375,-27.131250381469727
1697610980768667100,3.241667236328125,-10.518750190734863,39.86250305175781,-25.14375114440918
1697610980788666600,3.26166650390625,-11.49375057220459,41.868751525878906,-22.481250762939453
1697610980808665300,3.281665283203125,-10.74375057220459,42.69375228881836,-21.431251525878906
1697610980828673000,3.301673095703125,-11.456250190734863,43.70625305175781,-20.006250381469727
1697610980848671200,3.321671142578125,-10.518750190734863,43.78125,-20.381250381469727
1697610980868673300,3.34167333984375,-9.581250190734863,44.13750076293945,-20.662500381469727
1697610980888682000,3.361681884765625,-9.506250381469727,44.19375228881836,-21.881250381469727
1697610980908688400,3.3816884765625,-8.68125057220459,43.57500076293945,-22.181251525878906
1697610980928696600,3.401696533203125,-8.887500762939453,44.47500228881836,-21.76875114440918
1697610980948698400,3.421698486328125,-8.456250190734863,44.47500228881836,-21.450000762939453
1697610980968695000,3.441695068359375,-9.168750762939453,45.11250305175781,-20.64375114440918
1697610980988699400,3.461699462890625,-9.487500190734863,45.5625,-20.625
1697610981008698400,3.481698486328125,-9.450000762939453,45.69375228881836,-19.012500762939453
1697610981028696800,3.50169677734375,-9.637500762939453,46.16250228881836,-17.681251525878906
1697610981048706000,3.5217060546875,-9.52500057220459,47.0625,-17.26875114440918
1697610981068702200,3.5417021484375,-9.71250057220459,47.28750228881836,-15.637500762939453
1697610981088687000,3.56168701171875,-9.262500762939453,48.11250305175781,-14.49375057220459
1697610981108683000,3.58168310546875,-10.387500762939453,48.056251525878906,-12.99375057220459
1697610981128675300,3.60167529296875,-8.8125,47.73750305175781,-11.58750057220459
1697610981148667100,3.621667236328125,-8.49375057220459,49.181251525878906,-11.02500057220459
1697610981168667400,3.64166748046875,-7.668750286102295,49.44375228881836,-11.30625057220459
1697610981188671700,3.661671630859375,-7.387500286102295,48.07500076293945,-13.162500381469727
1697610981208671200,3.681671142578125,-7.050000190734863,49.312503814697266,-12.52500057220459
1697610981228678400,3.701678466796875,-6.412500381469727,49.63125228881836,-11.193750381469727
1697610981248691500,3.72169140625,-6.468750476837158,50.23125076293945,-8.34375
1697610981268697300,3.741697265625,-7.293750286102295,50.868751525878906,-7.725000381469727
1697610981288691200,3.761691162109375,-6.543750286102295,50.437503814697266,-6.825000286102295
1697610981308680400,3.781680419921875,-6.112500190734863,50.64375305175781,-6.112500190734863
1697610981328686800,3.801686767578125,-6.318750381469727,51.26250076293945,-5.981250286102295
1697610981348680000,3.821679931640625,-6.112500190734863,50.64375305175781,-6.318750381469727
1697610981368674300,3.84167431640625,-6.131250381469727,50.812503814697266,-6.618750095367432
1697610981388681700,3.861681640625,-6.431250095367432,50.718753814697266,-6.712500095367432
1697610981408672300,3.88167236328125,-6.656250476837158,50.718753814697266,-6.712500095367432
1697610981428664600,3.90166455078125,-6.862500190734863,51.056251525878906,-6.806250095367432
1697610981448666000,3.921666015625,-5.493750095367432,50.625003814697266,-6.693750381469727
1697610981468663600,3.94166357421875,-5.71875,50.906253814697266,-6.393750190734863
1697610981488671000,3.9616708984375,-5.71875,51.07500076293945,-6.393750190734863
1697610981508671000,3.9816708984375,-5.606250286102295,50.906253814697266,-6.093750476837158
1697610981528685800,4.001685791015625,-4.96875,50.73750305175781,-5.981250286102295
1697610981548693200,4.021693359375,-5.381250381469727,50.812503814697266,-6.281250476837158
1697610981568694500,4.041694580078125,-4.668750286102295,50.56875228881836,-6.093750476837158
1697610981588702200,4.0617021484375,-4.987500190734863,50.56875228881836,-5.981250286102295
1697610981608692200,4.081692138671875,-5.081250190734863,50.73750305175781,-6.093750476837158
1697610981628691200,4.101691162109375,-4.762500286102295,50.812503814697266,-6.281250476837158
1697610981648686000,4.12168603515625,-4.668750286102295,50.28750228881836,-6.300000190734863
1697610981668689400,4.141689453125,-5.493750095367432,50.83125305175781,-5.887500286102295
1697610981688680200,4.16168017578125,-4.762500286102295,50.47500228881836,-6.187500476837158
1697610981708671200,4.181671142578125,-4.762500286102295,50.906253814697266,-6.281250476837158
1697610981728677600,4.201677734375,-5.381250381469727,50.73750305175781,-6.300000190734863
1697610981748671200,4.221671142578125,-5.681250095367432,51.187503814697266,-5.475000381469727
1697610981768673800,4.241673828125,-4.987500190734863,50.19375228881836,-6.506250381469727
1697610981788671700,4.261671630859375,-5.081250190734863,50.73750305175781,-5.981250286102295
1697610981808686000,4.28168603515625,-4.762500286102295,50.73750305175781,-6.187500476837158
1697610981828685000,4.30168505859375,-4.96875,50.38125228881836,-5.587500095367432
1697610981848687000,4.32168701171875,-5.081250190734863,50.73750305175781,-6.093750476837158
1697610981868695800,4.34169580078125,-5.175000190734863,50.38125228881836,-5.90625
1697610981888698000,4.361697998046875,-4.987500190734863,50.55000305175781,-6.300000190734863
1697610981908689000,4.38168896484375,-5.287500381469727,50.64375305175781,-5.981250286102295
1697610981928695300,4.4016953125,-5.287500381469727,50.64375305175781,-6.393750190734863
1697610981948695800,4.42169580078125,-4.668750286102295,50.38125228881836,-5.681250095367432
1697610981968692200,4.441692138671875,-4.96875,50.92500305175781,-5.587500095367432
1697610981988696300,4.4616962890625,-5.287500381469727,50.73750305175781,-5.981250286102295
1697610982008687900,4.48168798828125,-5.175000190734863,50.64375305175781,-5.981250286102295
1697610982028689000,4.50168896484375,-5.381250381469727,50.38125228881836,-5.90625
1697610982048693200,4.521693359375,-4.96875,50.306251525878906,-5.90625
1697610982068692500,4.5416923828125,-6.525000095367432,50.66250228881836,-5.193750381469727
1697610982088680200,4.56168017578125,-5.606250286102295,50.83125305175781,-5.887500286102295
1697610982108678100,4.58167822265625,-5.0625,50.66250228881836,-5.681250095367432
1697610982128672300,4.60167236328125,-5.381250381469727,50.73750305175781,-6.093750476837158
1697610982148675600,4.621675537109375,-5.287500381469727,50.83125305175781,-5.887500286102295
1697610982168677000,4.641677001953125,-4.875,50.47500228881836,-5.793750286102295
1697610982188679200,4.66167919921875,-4.875,50.56875228881836,-5.981250286102295
1697610982208676900,4.6816767578125,-5.493750095367432,50.73750305175781,-6.206250190734863
1697610982228682500,4.7016826171875,-5.793750286102295,50.212501525878906,-5.418750286102295
1697610982248694000,4.721694091796875,-6.956250190734863,50.64375305175781,-5.71875
1697610982268698600,4.74169873046875,-5.287500381469727,50.75625228881836,-5.381250381469727
1697610982288697900,4.76169775390625,-4.762500286102295,50.212501525878906,-5.793750286102295
1697610982308685000,4.78168505859375,-4.762500286102295,50.56875228881836,-5.587500095367432
1697610982328678400,4.801678466796875,-5.0625,50.212501525878906,-5.493750095367432
1697610982348673300,4.82167333984375,-5.381250381469727,50.19375228881836,-6.018750190734863
1697610982368673500,4.841673583984375,-4.762500286102295,50.400001525878906,-5.381250381469727
1697610982388681200,4.86168115234375,-5.793750286102295,50.493751525878906,-5.100000381469727
1697610982408664300,4.881664306640625,-4.668750286102295,50.66250228881836,-5.587500095367432
1697610982428658700,4.90165869140625,-4.331250190734863,50.75625228881836,-5.475000381469727
1697610982448664300,4.921664306640625,-4.743750095367432,50.85000228881836,-5.0625
1697610982468675300,4.94167529296875,-4.650000095367432,50.75625228881836,-5.0625
1697610982488678700,4.9616787109375,-4.96875,50.400001525878906,-5.287500381469727
1697610982508677400,4.981677490234375,-4.96875,50.56875228881836,-5.493750095367432
1697610982528690400,5.0016904296875,-4.762500286102295,51.01875305175781,-5.362500190734863
1697610982548696300,5.0216962890625,-5.475000381469727,50.94375228881836,-4.462500095367432
1697610982568696300,5.0416962890625,-4.743750095367432,50.681251525878906,-4.875
1697610982588703000,5.061702880859375,-5.268750190734863,50.75625228881836,-4.875
1697610982608692500,5.0816923828125,-4.425000190734863,50.681251525878906,-4.368750095367432
1697610982628691200,5.101691162109375,-4.331250190734863,50.437503814697266,-4.368750095367432
1697610982648685800,5.121685791015625,-4.856250286102295,50.681251525878906,-4.575000286102295
1697610982668690000,5.14168994140625,-4.950000286102295,50.51250076293945,-4.387500286102295
1697610982688690200,5.161690185546875,-4.425000190734863,50.51250076293945,-4.068750381469727
1697610982708677400,5.181677490234375,-4.837500095367432,50.962501525878906,-4.068750381469727
1697610982728682000,5.201681884765625,-4.856250286102295,50.775001525878906,-4.368750095367432
1697610982748674000,5.221674072265625,-3.918750047683716,50.681251525878906,-4.462500095367432
1697610982768675000,5.241675048828125,-4.631250381469727,50.681251525878906,-4.575000286102295
1697610982788672800,5.2616728515625,-4.425000190734863,50.79375076293945,-4.162500381469727
1697610982808671700,5.281671630859375,-4.106250286102295,50.88750076293945,-4.143750190734863
1697610982828677400,5.301677490234375,-3.6937501430511475,50.51250076293945,-4.162500381469727
1697610982848681500,5.321681396484375,-4.443750381469727,50.681251525878906,-4.762500286102295
1697610982868680400,5.341680419921875,-4.743750095367432,50.51250076293945,-3.9750001430511475
1697610982888686800,5.361686767578125,-4.012500286102295,50.51250076293945,-4.162500381469727
1697610982908680400,5.381680419921875,-4.21875,50.868751525878906,-4.256250381469727
1697610982928689700,5.401689697265625,-4.21875,50.437503814697266,-4.068750381469727
1697610982948692700,5.421692626953125,-4.3125,50.51250076293945,-4.162500381469727
1697610982968690700,5.441690673828125,-4.125,50.681251525878906,-4.368750095367432
1697610982988685000,5.46168505859375,-3.5062501430511475,50.775001525878906,-4.443750381469727
1697610983008679700,5.4816796875,-4.21875,50.17500305175781,-3.7687501907348633
1697610983028686300,5.501686279296875,-4.425000190734863,50.962501525878906,-3.750000238418579
1697610983048692500,5.5216923828125,-3.918750047683716,50.79375076293945,-4.256250381469727
1697610983068685000,5.54168505859375,-4.012500286102295,50.962501525878906,-3.9562501907348633
1697610983088686600,5.5616865234375,-4.106250286102295,50.70000076293945,-3.9562501907348633
1697610983108683500,5.58168359375,-4.631250381469727,50.60625076293945,-3.9750001430511475
1697610983128688400,5.6016884765625,-4.518750190734863,50.962501525878906,-3.750000238418579
1697610983148688000,5.62168798828125,-4.725000381469727,50.88750076293945,-3.8625001907348633
1697610983168688000,5.641688232421875,-4.743750095367432,50.70000076293945,-3.9750001430511475
1697610983188687000,5.66168701171875,-5.25,50.437503814697266,-3.7875001430511475
1697610983208682200,5.68168212890625,-4.537500381469727,50.70000076293945,-3.9562501907348633
1697610983228685600,5.701685546875,-5.25,50.79375076293945,-3.7687501907348633
1697610983248695600,5.721695556640625,-4.631250381469727,50.79375076293945,-3.9562501907348633
1697610983268687600,5.7416875,-5.568750381469727,50.98125076293945,-3.356250047683716
1697610983288689000,5.76168896484375,-4.837500095367432,50.26875305175781,-3.7875001430511475
1697610983308678000,5.781677978515625,-5.15625,50.88750076293945,-3.7687501907348633
1697610983328685300,5.801685302734375,-5.34375,50.36250305175781,-3.4875001907348633
1697610983348679000,5.821678955078125,-5.231250286102295,50.812503814697266,-3.168750047683716
1697610983368678000,5.841677978515625,-5.043750286102295,50.79375076293945,-3.356250047683716
1697610983388684300,5.861684326171875,-5.456250190734863,50.437503814697266,-3.7875001430511475
1697610983408666600,5.88166650390625,-5.662500381469727,50.531253814697266,-3.375000238418579
1697610983428671200,5.901671142578125,-5.662500381469727,50.775001525878906,-4.087500095367432
1697610983448671000,5.9216708984375,-5.043750286102295,50.70000076293945,-3.9750001430511475
1697610983468667600,5.941667724609375,-5.043750286102295,50.343753814697266,-3.7875001430511475
1697610983488672000,5.961672119140625,-5.775000095367432,50.26875305175781,-3.5812501907348633
1697610983508671200,5.981671142578125,-5.568750381469727,50.98125076293945,-3.468750238418579
1697610983528685800,6.001685791015625,-5.456250190734863,50.718753814697266,-3.468750238418579
1697610983548693000,6.02169287109375,-5.25,50.531253814697266,-3.562500238418579
1697610983568694300,6.0416943359375,-5.662500381469727,50.343753814697266,-3.5812501907348633
1697610983588701700,6.06170166015625,-6.093750476837158,50.437503814697266,-3.8812501430511475
1697610983608691700,6.081691650390625,-5.662500381469727,50.51250076293945,-3.8812501430511475
1697610983628690700,6.101690673828125,-5.775000095367432,50.51250076293945,-3.7875001430511475
1697610983648697000,6.121697021484375,-6.075000286102295,50.531253814697266,-3.3937501907348633
1697610983668692200,6.141692138671875,-5.981250286102295,50.718753814697266,-3.375000238418579
1697610983688696600,6.161696533203125,-6.393750190734863,50.60625076293945,-3.5812501907348633
1697610983708681700,6.181681640625,-6.393750190734863,50.88750076293945,-3.7875001430511475
1697610983728685000,6.20168505859375,-6.093750476837158,50.868751525878906,-3.9750001430511475
1697610983748676400,6.22167626953125,-6.806250095367432,50.70000076293945,-3.5812501907348633
1697610983768665600,6.24166552734375,-5.981250286102295,50.79375076293945,-3.7875001430511475
1697610983788672000,6.261672119140625,-6.093750476837158,50.437503814697266,-3.7875001430511475
1697610983808665900,6.281665771484375,-6.075000286102295,50.531253814697266,-3.3937501907348633
1697610983828669000,6.3016689453125,-5.756250381469727,50.45625305175781,-2.7750000953674316
1697610983848675300,6.32167529296875,-5.981250286102295,50.437503814697266,-3.7875001430511475
1697610983868676000,6.341676025390625,-6.093750476837158,50.17500305175781,-3.6937501430511475
1697610983888684000,6.36168408203125,-6.187500476837158,50.60625076293945,-3.7875001430511475
1697610983908679400,6.381679443359375,-6.187500476837158,49.89375305175781,-3.8062500953674316
1697610983928689200,6.401689208984375,-6.300000190734863,50.156253814697266,-4.106250286102295
1697610983948692700,6.421692626953125,-5.887500286102295,50.681251525878906,-4.087500095367432
1697610983968691200,6.441691162109375,-6.281250476837158,50.625003814697266,-3.5812501907348633
1697610983988697000,6.461697021484375,-5.231250286102295,50.718753814697266,-3.168750047683716
1697610984008700000,6.481699951171875,-6.300000190734863,50.343753814697266,-3.9937500953674316
1697610984028694800,6.50169482421875,-5.662500381469727,50.437503814697266,-3.7875001430511475
1697610984048697900,6.52169775390625,-6.281250476837158,50.79375076293945,-3.5812501907348633
1697610984068688400,6.5416884765625,-6.393750190734863,50.79375076293945,-3.7875001430511475
1697610984088676900,6.5616767578125,-6.300000190734863,50.868751525878906,-4.181250095367432
1697610984108680700,6.5816806640625,-5.981250286102295,50.718753814697266,-3.4875001907348633
1697610984128674300,6.60167431640625,-6.187500476837158,50.531253814697266,-3.281250238418579
1697610984148677400,6.621677490234375,-6.393750190734863,50.718753814697266,-3.187500238418579
1697610984168683300,6.641683349609375,-5.662500381469727,50.343753814697266,-3.8812501430511475
1697610984188684000,6.66168408203125,-6.093750476837158,50.775001525878906,-4.087500095367432
1697610984208680400,6.681680419921875,-5.456250190734863,50.718753814697266,-3.562500238418579
1697610984228684800,6.701684814453125,-6.187500476837158,50.437503814697266,-3.8812501430511475
1697610984248695600,6.721695556640625,-5.568750381469727,50.437503814697266,-3.8812501430511475
1697610984268699600,6.74169970703125,-5.456250190734863,50.26875305175781,-3.7875001430511475
1697610984288698400,6.761698486328125,-5.662500381469727,50.79375076293945,-3.262500047683716
1697610984308686300,6.781686279296875,-6.187500476837158,50.343753814697266,-3.6937501430511475
1697610984328683000,6.80168310546875,-5.981250286102295,50.17500305175781,-3.6000001430511475
1697610984348680000,6.821679931640625,-5.568750381469727,50.60625076293945,-3.8812501430511475
1697610984368678100,6.84167822265625,-5.568750381469727,50.79375076293945,-3.468750238418579
1697610984388684300,6.861684326171875,-5.568750381469727,50.26875305175781,-3.4875001907348633
1697610984408667000,6.8816669921875,-6.187500476837158,50.60625076293945,-3.8812501430511475
1697610984428663800,6.901663818359375,-6.093750476837158,50.60625076293945,-3.9937500953674316
1697610984448668700,6.921668701171875,-5.568750381469727,50.343753814697266,-3.4875001907348633
1697610984468666400,6.941666259765625,-6.712500095367432,50.51250076293945,-3.9937500953674316
1697610984488672000,6.961672119140625,-5.456250190734863,50.79375076293945,-3.8625001907348633
1697610984508672000,6.981672119140625,-5.268750190734863,50.79375076293945,-4.068750381469727
1697610984528686300,7.001686279296875,-7.237500190734863,50.94375228881836,-4.200000286102295
1697610984548693500,7.021693603515625,-5.887500286102295,50.437503814697266,-3.8812501430511475
1697610984568694500,7.041694580078125,-4.837500095367432,50.625003814697266,-3.7687501907348633
1697610984588702000,7.061701904296875,-5.362500190734863,50.70000076293945,-3.7687501907348633
1697610984608691700,7.081691650390625,-5.568750381469727,50.531253814697266,-3.4875001907348633
1697610984628690700,7.101690673828125,-6.187500476837158,50.60625076293945,-3.8812501430511475
1697610984648678100,7.12167822265625,-4.425000190734863,50.625003814697266,-3.656250238418579
1697610984668676400,7.14167626953125,-5.362500190734863,50.343753814697266,-3.6750001907348633
1697610984688678400,7.161678466796875,-5.662500381469727,50.962501525878906,-3.8625001907348633
1697610984708679700,7.1816796875,-5.887500286102295,50.962501525878906,-3.7687501907348633
1697610984728676900,7.2016767578125,-4.837500095367432,51.056251525878906,-3.8625001907348633
1697610984748671200,7.221671142578125,-4.931250095367432,50.79375076293945,-3.8625001907348633
1697610984768662500,7.24166259765625,-5.456250190734863,51.07500076293945,-3.0562500953674316
1697610984788664000,7.2616640625,-4.931250095367432,50.718753814697266,-3.7687501907348633
1697610984808665000,7.2816650390625,-4.200000286102295,50.64375305175781,-2.9437501430511475
1697610984828676600,7.301676513671875,-4.40625,50.55000305175781,-3.168750047683716
1697610984848681700,7.321681640625,-4.425000190734863,50.79375076293945,-3.562500238418579
1697610984868681500,7.341681396484375,-4.837500095367432,50.17500305175781,-3.375000238418579
1697610984888688000,7.361688232421875,-5.568750381469727,50.625003814697266,-3.4875001907348633
1697610984908687600,7.3816875,-4.931250095367432,50.812503814697266,-3.168750047683716
1697610984928695600,7.401695556640625,-5.34375,50.45625305175781,-3.375000238418579
1697610984948697000,7.421697021484375,-5.868750095367432,51.07500076293945,-3.168750047683716
1697610984968694000,7.441694091796875,-6.187500476837158,50.10000228881836,-3
1697610984988690700,7.461690673828125,-6.075000286102295,50.45625305175781,-3.075000047683716
1697610985008698600,7.48169873046875,-8.887500762939453,51.056251525878906,-3.1125001907348633
1697610985028693800,7.50169384765625,-6.581250190734863,50.625003814697266,-2.7750000953674316
1697610985048700200,7.5217001953125,-8.86875057220459,50.906253814697266,-2.512500047683716
1697610985068690000,7.54168994140625,-8.662500381469727,50.962501525878906,-3.2062501907348633
1697610985088678100,7.56167822265625,-7.106250286102295,50.718753814697266,-3.093750238418579
1697610985108665000,7.5816650390625,-8.362500190734863,50.812503814697266,-2.700000047683716
1697610985128667000,7.6016669921875,-9.80625057220459,51.150001525878906,-2.71875
1697610985148671500,7.62167138671875,-7.931250095367432,50.55000305175781,-2.4937500953674316
1697610985168679200,7.64167919921875,-6.900000095367432,50.28750228881836,-2.3812501430511475
1697610985188681500,7.661681396484375,-7.312500476837158,50.83125305175781,-1.9875000715255737
1697610985208690200,7.681690185546875,-8.043750762939453,50.47500228881836,-2.1000001430511475
1697610985228692700,7.701692626953125,-7.612500190734863,50.38125228881836,-1.8937500715255737
1697610985248701700,7.72170166015625,-8.456250190734863,50.38125228881836,-1.912500023841858
1697610985268704000,7.7417041015625,-8.86875057220459,50.531253814697266,-2.512500047683716
1697610985288701400,7.761701416015625,-8.02500057220459,50.306251525878906,-1.818750023841858
1697610985308688000,7.78168798828125,-9.375,50.28750228881836,-1.725000023841858
1697610985328683500,7.80168359375,-8.756250381469727,50.83125305175781,-1.7062500715255737
1697610985348684300,7.821684326171875,-9.99375057220459,50.75625228881836,-0.9187500476837158
1697610985368681500,7.841681396484375,-9.168750762939453,50.04375076293945,-1.3125
1697610985388688600,7.861688720703125,-9.99375057220459,50.13750076293945,-0.9375000596046448
1697610985408669000,7.8816689453125,-10.725000381469727,49.85625076293945,-1.0500000715255737
1697610985428672300,7.90167236328125,-10.725000381469727,49.70625305175781,-0.24375000596046448
1697610985448672000,7.921672119140625,-10.818750381469727,49.61250305175781,-0.5437500476837158
1697610985468667400,7.94166748046875,-11.643750190734863,49.968753814697266,-0.45000001788139343
1697610985488679000,7.961678955078125,-11.231250762939453,49.35000228881836,-0.16875000298023224
1697610985508677400,7.981677490234375,-11.643750190734863,49.70625305175781,0.24375000596046448
1697610985528690000,8.00168994140625,-11.643750190734863,49.44375228881836,0.22500000894069672
1697610985548695800,8.02169580078125,-12.562500953674316,48.937503814697266,1.1062500476837158
1697610985568695800,8.04169580078125,-11.737500190734863,49.72500228881836,0.7312500476837158
1697610985588702500,8.061702392578125,-12.787500381469727,49.368751525878906,0.7125000357627869
1697610985608691700,8.081691650390624,-13.706250190734863,49.462501525878906,1.1062500476837158
1697610985628690400,8.1016904296875,-13.518750190734863,49.53750228881836,0.8062500357627869
1697610985648679200,8.12167919921875,-13.706250190734863,49.181251525878906,0.9937500357627869
1697610985668679700,8.1416796875,-14.643750190734863,49.181251525878906,0.675000011920929
1697610985688680700,8.1616806640625,-14.325000762939453,49.72500228881836,1.5187500715255737
1697610985708670000,8.181669921875,-15.375000953674316,48.993751525878906,0.862500011920929
1697610985728669200,8.201669189453124,-15.487500190734863,48.993751525878906,0.862500011920929
1697610985748665000,8.2216650390625,-16.106250762939453,49.275001525878906,1.068750023841858
1697610985768669200,8.241669189453125,-14.643750190734863,48.843753814697266,1.3875000476837158
1697610985788668700,8.261668701171875,-14.531250953674316,49.53750228881836,1.1062500476837158
1697610985808665000,8.2816650390625,-12.881250381469727,49.63125228881836,0.5250000357627869
1697610985828676400,8.30167626953125,-11.86875057220459,49.35000228881836,-0.16875000298023224
1697610985848681500,8.321681396484376,-10.18125057220459,49.98750305175781,-0.13125000894069672
1697610985868681200,8.34168115234375,-9.99375057220459,50.306251525878906,-1.4250000715255737
1697610985888687900,8.36168798828125,-8.137500762939453,50.64375305175781,-1.8937500715255737
1697610985908696600,8.381696533203124,-6.806250095367432,50.812503814697266,-2.7750000953674316
1697610985928691000,8.40169091796875,-5.15625,51.13125228881836,-4.068750381469727
1697610985948693500,8.421693603515624,-4.125,50.868751525878906,-4.462500095367432
1697610985968691000,8.44169091796875,-2.0625,50.83125305175781,-6.356250286102295
1697610985988689200,8.461689208984374,-1.443750023841858,50.73750305175781,-6.843750476837158
1697610986008690700,8.481690673828124,-0.01875000074505806,50.625003814697266,-8.043750762939453
1697610986028699400,8.501699462890626,2.137500047683716,49.70625305175781,-9.356250762939453
1697610986048701700,8.52170166015625,3.562500238418579,49.85625076293945,-10.93125057220459
1697610986068691200,8.541691162109375,5.100000381469727,49.20000076293945,-12.543750762939453
1697610986088679000,8.561678955078126,6.731250286102295,48.82500076293945,-13.631250381469727
1697610986108693500,8.581693603515625,8.887500762939453,47.625,-15.562500953674316
1697610986128684800,8.601684814453124,10.106250762939453,46.61250305175781,-17.08125114440918
1697610986148680700,8.6216806640625,11.53125,45.525001525878906,-18.412500381469727
1697610986168685300,8.641685302734375,13.725000381469727,44.73750305175781,-18.600000381469727
1697610986188684800,8.661684814453125,15.05625057220459,43.57500076293945,-19.012500762939453
1697610986208680400,8.681680419921875,16.912500381469727,42.150001525878906,-19.631250381469727
1697610986228684300,8.701684326171875,18.46875,40.743751525878906,-19.256250381469727
1697610986248694800,8.72169482421875,20.756250381469727,40.21875,-19.631250381469727
1697610986268699000,8.741698974609376,21.46875,39.41250228881836,-19.743751525878906
1697610986288697300,8.761697265625,22.70625114440918,38.36250305175781,-19.875
1697610986308703700,8.781703857421874,23.53125,38.08125305175781,-19.856250762939453
1697610986328706000,8.8017060546875,23.943750381469727,37.03125,-19.78125
1697610986348701400,8.821701416015625,24.168750762939453,37.125,-19.481250762939453
1697610986368687400,8.841687255859375,24.900001525878906,36.618751525878906,-19.087501525878906
1697610986388682200,8.86168212890625,24.262500762939453,36.50625228881836,-19.59375
1697610986408666600,8.88166650390625,24.67500114440918,36.86250305175781,-19.387500762939453
1697610986428659200,8.9016591796875,25.406251907348633,36.86250305175781,-19.575000762939453
1697610986448664000,8.9216640625,25.293750762939453,36.50625228881836,-19.6875
1697610986468661200,8.9416611328125,24.787500381469727,36.431251525878906,-19.181251525878906
1697610986488674600,8.961674560546875,24.787500381469727,36.337501525878906,-19.481250762939453
1697610986508673800,8.981673828125,24.375001907348633,37.21875,-19.575000762939453
1697610986528676600,9.001676513671875,24.993751525878906,36.67500305175781,-19.98750114440918
1697610986548685800,9.021685791015624,24.67500114440918,36.13125228881836,-20.418750762939453
1697610986568688600,9.041688720703124,24.356250762939453,36.20625305175781,-20.8125
1697610986588697900,9.06169775390625,25.162500381469727,35.587501525878906,-21.01875114440918
1697610986608700400,9.081700439453124,25.068750381469727,35.85000228881836,-21.11250114440918
1697610986628697900,9.10169775390625,24.95625114440918,35.212501525878906,-21.731250762939453
1697610986648695800,9.12169580078125,26.193750381469727,34.51875305175781,-21.543750762939453
1697610986668697000,9.141697021484376,26.306251525878906,34.06875228881836,-21.75
1697610986688693800,9.16169384765625,26.92500114440918,33.63750076293945,-21.243751525878906
1697610986708679000,9.181678955078125,27.656251907348633,32.66250228881836,-21.46875
1697610986728675000,9.201675048828125,28.368751525878906,32.400001525878906,-21.375
1697610986748669200,9.221669189453126,28.668750762939453,31.406251907348633,-21.993751525878906
1697610986768661000,9.241660888671875,28.98750114440918,30.86250114440918,-22.106250762939453
1697610986788662300,9.261662353515625,29.193750381469727,30.431251525878906,-22.012500762939453
1697610986808666400,9.281666259765625,29.681251525878906,29.625001907348633,-22.743751525878906
1697610986828677400,9.301677490234376,30.11250114440918,29.193750381469727,-21.9375
1697610986848682200,9.32168212890625,30.637500762939453,28.575000762939453,-22.350000381469727
1697610986868681500,9.341681396484375,31.031251907348633,28.387500762939453,-22.443750381469727
1697610986888687900,9.36168798828125,31.14375114440918,27.843751907348633,-22.668750762939453
1697610986908689000,9.38168896484375,31.125001907348633,27.562501907348633,-23.287500381469727
1697610986928696300,9.4016962890625,31.443750381469727,27.318750381469727,-23.08125114440918
1697610986948697900,9.42169775390625,30.075000762939453,27.637500762939453,-24.093751907348633
1697610986968686600,9.4416865234375,30.39375114440918,27.375001907348633,-24.01875114440918
1697610986988695000,9.461695068359376,30.375001907348633,27.450000762939453,-24.506250381469727
1697610987008695300,9.4816953125,30.281251907348633,27.712501525878906,-24.39375114440918
1697610987028702500,9.501702392578125,29.756250381469727,27.693750381469727,-24.918750762939453
1697610987048696600,9.521696533203125,29.437501907348633,27.506250381469727,-25.42500114440918
1697610987068687000,9.54168701171875,28.818750381469727,27.243751525878906,-25.443750381469727
1697610987088675600,9.561675537109375,28.593751907348633,28.125001907348633,-25.837501525878906
1697610987108667100,9.581667236328125,27.86250114440918,28.443750381469727,-26.531251907348633
1697610987128664000,9.6016640625,26.512500762939453,29.231250762939453,-26.92500114440918
1697610987148665900,9.621665771484375,25.575000762939453,29.756250381469727,-27.131250381469727
1697610987168674800,9.6416748046875,25.14375114440918,30.01875114440918,-27.731250762939453
1697610987188678100,9.66167822265625,23.90625,30.262500762939453,-27.843751907348633
1697610987208676900,9.6816767578125,23.26875114440918,30.86250114440918,-28.556251525878906
1697610987228683000,9.70168310546875,22.443750381469727,31.125001907348633,-28.968751907348633
1697610987248694800,9.72169482421875,21.712501525878906,32.00625228881836,-29.137500762939453
1697610987268699600,9.74169970703125,19.725000381469727,32.51250076293945,-29.568750381469727
1697610987288699100,9.76169921875,19.51875114440918,33.20625305175781,-29.850000381469727
1697610987308701000,9.781700927734375,18.48750114440918,33.73125076293945,-29.756250381469727
1697610987328691200,9.801691162109375,18.1875,34.63125228881836,-29.418750762939453
1697610987348690700,9.821690673828124,16.631250381469727,35.34375,-29.531251907348633
1697610987368686600,9.8416865234375,15.80625057220459,35.775001525878906,-29.418750762939453
1697610987388683300,9.861683349609375,15.393750190734863,36.31875228881836,-29.418750762939453
1697610987408664600,9.88166455078125,13.218750953674316,37.10625076293945,-29.325000762939453
1697610987428676400,9.90167626953125,13.218750953674316,37.650001525878906,-28.80000114440918
1697610987448674300,9.92167431640625,13.237500190734863,38.625,-28.668750762939453
1697610987468676600,9.941676513671876,12.393750190734863,38.8125,-28.387500762939453
1697610987488685800,9.961685791015626,12.318750381469727,39.900001525878906,-27.131250381469727
1697610987508683500,9.98168359375,11.606250762939453,40.368751525878906,-26.231250762939453
1697610987528683000,10.00168310546875,11.925000190734863,41.10000228881836,-25.481250762939453
1697610987548689700,10.021689697265625,10.706250190734863,41.47500228881836,-24.093751907348633
1697610987568679400,10.041679443359374,11.137500762939453,42.375,-23.868751525878906
1697610987588690000,10.06168994140625,10.537500381469727,43.29375076293945,-22.537500381469727
1697610987608694000,10.081694091796875,10.443750381469727,43.837501525878906,-21.918750762939453
1697610987628686800,10.101686767578125,11.081250190734863,44.400001525878906,-21.075000762939453
1697610987648689700,10.121689697265625,10.050000190734863,44.493751525878906,-20.475000381469727
1697610987668692700,10.141692626953125,10.18125057220459,45.67500305175781,-19.125
1697610987688690700,10.161690673828126,9.768750190734863,45.50625228881836,-18.731250762939453
1697610987708688600,10.181688720703125,9.46875,45.431251525878906,-18.65625
1697610987728683000,10.20168310546875,9.881250381469727,46.16250228881836,-17.90625
1697610987748674300,10.22167431640625,9.262500762939453,45.97500228881836,-18.037500381469727
1697610987768669200,10.241669189453125,9.262500762939453,46.33125305175781,-17.71875
1697610987788670700,10.261670654296875,8.643750190734863,46.6875,-17.512500762939453
1697610987808672800,10.2816728515625,8.643750190734863,46.875,-17.71875
1697610987828681700,10.301681640625,8.643750190734863,46.42500305175781,-17.8125
1697610987848684800,10.321684814453125,8.53125,46.76250076293945,-18.225000381469727
1697610987868682800,10.341682861328126,7.593750476837158,46.14375305175781,-18.356250762939453
1697610987888688400,10.3616884765625,8.512500762939453,46.125,-18.84375
1697610987908682000,10.381681884765625,7.781250476837158,46.10625076293945,-19.462501525878906
1697610987928679400,10.401679443359376,7.987500190734863,45.65625,-19.875
1697610987948684800,10.421684814453124,8.193750381469727,45.65625,-20.17500114440918
1697610987968677600,10.441677734375,8.081250190734863,45.54375076293945,-20.475000381469727
1697610987988693500,10.461693603515625,8.175000190734863,45.20625305175781,-20.587501525878906
1697610988008695000,10.481695068359375,8.0625,45.1875,-21.09375
1697610988028703000,10.501702880859375,8.475000381469727,45.09375,-21.1875
1697610988048697600,10.521697509765625,8.793750762939453,44.90625,-21.506250381469727
1697610988068688600,10.541688720703124,8.268750190734863,44.53125,-21.825000762939453
1697610988088689400,10.561689453125,8.77500057220459,44.34375,-22.725000381469727
1697610988108685000,10.58168505859375,8.456250190734863,44.25,-22.931251525878906
1697610988128685000,10.60168505859375,8.456250190734863,43.70625305175781,-23.25
1697610988148692500,10.6216923828125,7.818750381469727,43.875,-24.056251525878906
1697610988168694000,10.641694091796875,8.006250381469727,43.40625,-24.48750114440918
1697610988188691500,10.66169140625,8.831250190734863,43.40625,-25.068750381469727
1697610988208685000,10.68168505859375,8.40000057220459,42.84375,-26.006250381469727
1697610988228687400,10.701687255859374,8.381250381469727,41.681251525878906,-26.437501907348633
1697610988248696600,10.721696533203126,8.287500381469727,42.1875,-27.131250381469727
1697610988268699600,10.74169970703125,9.206250190734863,40.931251525878906,-27.656251907348633
1697610988288700000,10.761699951171876,9.506250381469727,40.51875305175781,-27.356250762939453
1697610988308686000,10.78168603515625,9.80625057220459,40.23750305175781,-27.975000381469727
1697610988328690200,10.801690185546875,10.856250762939453,39.78750228881836,-28.068750381469727
1697610988348689400,10.821689453125,11.887500762939453,39.525001525878906,-28.368751525878906
1697610988368677400,10.841677490234375,11.34375,39.150001525878906,-28.89375114440918
1697610988388675600,10.861675537109376,11.981250762939453,39.150001525878906,-28.781251907348633
1697610988408659700,10.88165966796875,13.012500762939453,38.79375076293945,-29.08125114440918
1697610988428654300,10.901654296875,13.631250381469727,38.45625305175781,-28.875001907348633
1697610988448662300,10.921662353515625,14.043750762939453,38.26875305175781,-28.762500762939453
1697610988468668700,10.941668701171874,14.250000953674316,37.650001525878906,-29.08125114440918
1697610988488680700,10.9616806640625,15.825000762939453,37.21875,-28.687501907348633
1697610988508686300,10.981686279296875,16.856250762939453,36.60000228881836,-28.875001907348633
1697610988528697600,11.001697509765625,16.856250762939453,36.50625228881836,-28.687501907348633
1697610988548701700,11.02170166015625,18.712501525878906,35.45625305175781,-28.481250762939453
1697610988568700200,11.0417001953125,19.23750114440918,34.66875076293945,-28.406251907348633
1697610988588705500,11.06170556640625,20.606250762939453,34.59375,-27.881250381469727
1697610988608705300,11.081705322265625,22.368751525878906,33.46875,-26.962501525878906
1697610988628693000,11.10169287109375,22.98750114440918,32.94375228881836,-26.887500762939453
1697610988648686800,11.121686767578124,24.131250381469727,32.51250076293945,-26.36250114440918
1697610988668689400,11.141689453125,25.387500762939453,32.08125305175781,-26.26875114440918
1697610988688687600,11.1616875,26.943750381469727,30.58125114440918,-26.08125114440918
1697610988708674300,11.18167431640625,26.850000381469727,29.981250762939453,-25.387500762939453
1697610988728674000,11.201674072265625,27.993751525878906,29.475000381469727,-24.881250381469727
1697610988748679400,11.221679443359376,27.881250381469727,28.500001907348633,-24.506250381469727
1697610988768668400,11.24166845703125,29.45625114440918,27.975000381469727,-24.712501525878906
1697610988788671700,11.261671630859375,29.250001907348633,27.900001525878906,-24.20625114440918
1697610988808673500,11.281673583984375,29.962501525878906,27.637500762939453,-24.20625114440918
1697610988828682200,11.30168212890625,29.568750381469727,27.093751907348633,-24.01875114440918
1697610988848685000,11.32168505859375,29.775001525878906,28.368751525878906,-23.475000381469727
1697610988868683300,11.341683349609376,26.45625114440918,29.043750762939453,-23.606250762939453
1697610988888689000,11.36168896484375,28.312501907348633,28.443750381469727,-23.400001525878906
1697610988908689000,11.38168896484375,29.981250762939453,28.087501525878906,-23.681251525878906
1697610988928696000,11.401696044921875,29.587501525878906,28.818750381469727,-23.0625
1697610988948698400,11.421698486328125,28.856250762939453,29.437501907348633,-23.15625
1697610988968687900,11.44168798828125,27.918750762939453,30.656251907348633,-23.231250762939453
1697610988988693800,11.46169384765625,28.14375114440918,30.76875114440918,-22.631250381469727
1697610989008694000,11.481694091796875,27.20625114440918,31.912500381469727,-23.006250381469727
1697610989028693800,11.50169384765625,26.681251525878906,32.45625305175781,-22.5
1697610989048689400,11.521689453125,26.493751525878906,33.243751525878906,-22.387500762939453
1697610989068681700,11.541681640625,24.937501907348633,34.57500076293945,-22.256250381469727
1697610989088672000,11.561672119140624,24.525001525878906,35.118751525878906,-22.256250381469727
1697610989108672500,11.581672607421876,22.875,36.1875,-21.431251525878906
1697610989128676000,11.601676025390624,22.462501525878906,36.88125228881836,-21.637500762939453
1697610989148686300,11.621686279296876,21.037500381469727,38.681251525878906,-20.493751525878906
1697610989168690400,11.6416904296875,20.418750762939453,38.681251525878906,-20.793750762939453
1697610989188689400,11.661689453125,20.118751525878906,39.65625,-20.26875114440918
1697610989208684500,11.6816845703125,19.40625,40.66875076293945,-19.556251525878906
1697610989228687600,11.7016875,17.850000381469727,41.53125,-19.33125114440918
1697610989248697300,11.721697265625,17.137500762939453,42.431251525878906,-19.125
1697610989268700700,11.74170068359375,15.787500381469727,42.806251525878906,-18.337501525878906
1697610989288692200,11.761692138671876,14.456250190734863,43.95000076293945,-18.11250114440918
1697610989308684800,11.781684814453126,13.612500190734863,44.47500228881836,-18.412500381469727
1697610989328678400,11.801678466796876,12.262500762939453,45.01875305175781,-18.20625114440918
1697610989348689000,11.82168896484375,11.96250057220459,44.92500305175781,-18.01875114440918
1697610989368678700,11.8416787109375,11.231250762939453,45.45000076293945,-17.90625
1697610989388677400,11.861677490234374,10.106250762939453,46.16250228881836,-17.400001525878906
1697610989408678000,11.881677978515626,9.075000762939453,46.78125,-17.100000381469727
1697610989428668400,11.90166845703125,8.643750190734863,46.44375228881836,-17.118751525878906
1697610989448671700,11.921671630859375,8.043750762939453,46.53750228881836,-16.61250114440918
1697610989468675000,11.941675048828126,7.425000190734863,47.17500305175781,-15.99375057220459
1697610989488685000,11.96168505859375,6.262500286102295,47.41875076293945,-16.725000381469727
1697610989508681500,11.981681396484374,8.268750190734863,46.72500228881836,-15.90000057220459
1697610989528681700,12.001681640625,7.837500095367432,47.08125305175781,-15.90000057220459
1697610989548689200,12.021689208984375,6.600000381469727,47.26875305175781,-15.80625057220459
1697610989568690400,12.0416904296875,8.15625,46.89375305175781,-16.106250762939453
1697610989588698400,12.061698486328124,8.58750057220459,47.10000228881836,-15.487500190734863
1697610989608700200,12.0817001953125,8.475000381469727,47.36250305175781,-15.787500381469727
1697610989628690700,12.101690673828125,9.71250057220459,46.91250228881836,-15.675000190734863
1697610989648685800,12.121685791015626,9.71250057220459,47.10000228881836,-15.675000190734863
1697610989668689200,12.141689208984374,10.443750381469727,46.743751525878906,-15.862500190734863
1697610989688680200,12.16168017578125,10.443750381469727,47.00625228881836,-15.656250953674316
1697610989708680700,12.1816806640625,10.537500381469727,46.650001525878906,-16.068750381469727
1697610989728676900,12.2016767578125,11.793750762939453,46.21875,-15.862500190734863
1697610989748672800,12.2216728515625,12.937500953674316,46.23750305175781,-15.543750762939453
1697610989768674300,12.24167431640625,13.237500190734863,45.69375228881836,-15.956250190734863
1697610989788679700,12.2616796875,14.49375057220459,45.525001525878906,-15.543750762939453
1697610989808679400,12.281679443359375,16.162500381469727,45.09375,-15.33750057220459
1697610989828686800,12.301686767578126,17.71875,44.13750076293945,-15.225000381469727
1697610989848688400,12.3216884765625,19.162500381469727,42.97500228881836,-15.356250762939453
1697610989868685600,12.341685546875,19.89375114440918,42.1875,-15.262500762939453
1697610989888690000,12.36168994140625,21.225000381469727,41.73750305175781,-15.450000762939453
1697610989908689400,12.381689453125,23.212501525878906,40.61250305175781,-14.756250381469727
1697610989928695800,12.40169580078125,24.656251907348633,39.46875,-15.168750762939453
1697610989948690200,12.421690185546876,26.100000381469727,38.306251525878906,-15.675000190734863
1697610989968695000,12.441695068359374,26.493751525878906,36.78750228881836,-15.71250057220459
1697610989988688100,12.461688232421874,28.687501907348633,35.38125228881836,-15.825000762939453
1697610990008680200,12.48168017578125,29.306251525878906,34.40625,-15.956250190734863
1697610990028672000,12.501672119140625,30.843751907348633,32.28750228881836,-15.375000953674316
1697610990048673000,12.521673095703125,31.556251525878906,31.031251907348633,-16.012500762939453
1697610990068674000,12.541674072265625,33.11250305175781,29.625001907348633,-15.731250762939453
1697610990088667100,12.561667236328125,33.73125076293945,28.743751525878906,-15.843750953674316
1697610990108670200,12.581670166015625,34.23750305175781,27.48750114440918,-16.387500762939453
1697610990128675300,12.60167529296875,34.33125305175781,26.868751525878906,-16.80000114440918
1697610990148686800,12.621686767578124,34.44375228881836,26.231250762939453,-16.818750381469727
1697610990168691700,12.641691650390625,34.33125305175781,25.968751907348633,-16.818750381469727
1697610990188691000,12.66169091796875,34.650001525878906,26.156251907348633,-16.818750381469727
1697610990208685800,12.681685791015624,34.01250076293945,26.306251525878906,-17.73750114440918
1697610990228689000,12.70168896484375,34.01250076293945,26.381250381469727,-17.92500114440918
1697610990248698400,12.721698486328124,33.39375305175781,26.83125114440918,-17.8125
1697610990268701400,12.741701416015625,33.26250076293945,26.962501525878906,-19.23750114440918
1697610990288692200,12.761692138671876,32.4375,27.843751907348633,-19.3125
1697610990308688100,12.781688232421875,31.181251525878906,28.725000381469727,-20.025001525878906
1697610990328692500,12.8016923828125,30.037500381469727,29.943750381469727,-20.418750762939453
1697610990348683800,12.821683837890625,29.100000381469727,30.825000762939453,-20.793750762939453
1697610990368673300,12.84167333984375,28.481250762939453,31.593751907348633,-21.28125
1697610990388672300,12.86167236328125,27.037500381469727,33.375,-21.168750762939453
1697610990408656400,12.881656494140625,25.687501907348633,34.85625076293945,-21.637500762939453
1697610990428653000,12.901653076171876,25.275001525878906,35.04375076293945,-21.337501525878906
1697610990448665000,12.9216650390625,23.71875,36.63750076293945,-21.318750381469727
1697610990468671000,12.9416708984375,22.368751525878906,37.44375228881836,-21.11250114440918
1697610990488682800,12.961682861328125,20.83125114440918,39.13125228881836,-20.681251525878906
1697610990508688000,12.98168798828125,20.4375,39.84375,-19.96875
1697610990528698600,13.00169873046875,17.73750114440918,41.775001525878906,-20.45625114440918
1697610990548702500,13.021702392578124,17.137500762939453,42.60000228881836,-19.3125
1697610990568700700,13.04170068359375,16.087501525878906,43.21875,-19.51875114440918
1697610990588705800,13.061705810546876,14.11875057220459,43.76250076293945,-18.825000762939453
1697610990608687600,13.0816875,13.93125057220459,44.13750076293945,-18.225000381469727
1697610990628682800,13.101682861328126,12.262500762939453,44.73750305175781,-18.637500762939453
1697610990648679400,13.121679443359374,12.05625057220459,45.01875305175781,-18.225000381469727
1697610990668684500,13.1416845703125,10.21875,46.35000228881836,-17.400001525878906
1697610990688676900,13.1616767578125,9.881250381469727,46.61250305175781,-17.700000762939453
1697610990708668000,13.18166796875,9.581250190734863,46.087501525878906,-17.418750762939453
1697610990728667400,13.20166748046875,9.581250190734863,46.42500305175781,-17.71875
1697610990748665000,13.2216650390625,9.168750762939453,46.78125,-17.606250762939453
1697610990768669200,13.241669189453125,9.05625057220459,46.33125305175781,-17.512500762939453
1697610990788676400,13.26167626953125,8.53125,46.23750305175781,-18.131250381469727
1697610990808678000,13.281677978515624,9.05625057220459,46.5,-18.11250114440918
1697610990828686300,13.301686279296876,9.262500762939453,46.42500305175781,-17.8125
1697610990848688600,13.321688720703126,8.96250057220459,46.42500305175781,-17.625
1697610990868697300,13.341697265625,9.05625057220459,46.42500305175781,-17.71875
1697610990888699400,13.361699462890625,10.3125,46.181251525878906,-17.100000381469727
1697610990908697000,13.381697021484374,10.518750190734863,46.33125305175781,-17.700000762939453
1697610990928701400,13.401701416015625,11.550000190734863,46.25625228881836,-17.793750762939453
1697610990948694500,13.421694580078125,11.53125,45.618751525878906,-18.20625114440918
1697610990968691200,13.441691162109375,12.05625057220459,45.618751525878906,-18.506250381469727
1697610990988695600,13.461695556640626,12.24375057220459,45.07500076293945,-19.21875
1697610991008678700,13.4816787109375,13.706250190734863,44.45625305175781,-19.21875
1697610991028671200,13.501671142578125,15.262500762939453,43.743751525878906,-19.106250762939453
1697610991048672000,13.521672119140625,15.543750762939453,42.58125305175781,-20.15625
1697610991068686800,13.541686767578126,17.006250381469727,42.056251525878906,-19.743751525878906
1697610991088676600,13.561676513671875,18.67500114440918,41.71875,-20.025001525878906
1697610991108684000,13.58168408203125,20.006250381469727,40.63125228881836,-20.137500762939453
1697610991128685600,13.601685546875,21.450000762939453,39.20625305175781,-20.868751525878906
1697610991148693500,13.621693603515626,22.481250762939453,38.23125076293945,-21.1875
1697610991168695600,13.641695556640625,23.400001525878906,37.33125305175781,-21.918750762939453
1697610991188693000,13.66169287109375,24.318750381469727,35.36250305175781,-22.443750381469727
1697610991208686600,13.6816865234375,25.14375114440918,34.91250228881836,-22.762500762939453
1697610991228689000,13.70168896484375,26.700000762939453,32.73750305175781,-22.181251525878906
1697610991248697900,13.72169775390625,28.350000381469727,31.293750762939453,-22.61250114440918
1697610991268694000,13.741694091796875,29.700000762939453,29.625001907348633,-22.125
1697610991288689400,13.761689453125,29.906251907348633,28.912500381469727,-22.256250381469727
1697610991308688000,13.78168798828125,30.318750381469727,27.76875114440918,-22.275001525878906
1697610991328692000,13.80169189453125,31.368751525878906,27.525001525878906,-21.975000381469727
1697610991348684000,13.82168408203125,31.668750762939453,27.075000762939453,-21.5625
1697610991368673500,13.841673583984376,31.443750381469727,26.718751907348633,-22.087501525878906
1697610991388672500,13.861672607421875,31.668750762939453,26.812501907348633,-21.975000381469727
1697610991408656600,13.88165673828125,31.556251525878906,26.981250762939453,-21.975000381469727
1697610991428652300,13.90165234375,31.256250381469727,27.075000762939453,-21.67500114440918
1697610991448664600,13.92166455078125,31.05000114440918,27.525001525878906,-21.46875
1697610991468670700,13.941670654296875,31.068750381469727,28.068750381469727,-20.943750381469727
1697610991488682800,13.961682861328125,30.337501525878906,28.856250762939453,-21.637500762939453
1697610991508680400,13.981680419921876,29.718751907348633,29.83125114440918,-21.525001525878906
1697610991528681700,14.001681640625,28.575000762939453,30.525001525878906,-21.412500381469727
1697610991548690000,14.02168994140625,26.812501907348633,31.762500762939453,-21.412500381469727
1697610991568691700,14.041691650390625,26.812501907348633,33.20625305175781,-21.075000762939453
1697610991588700000,14.061699951171875,25.275001525878906,34.875,-21.037500381469727
1697610991608694500,14.081694580078125,23.71875,35.75625228881836,-20.943750381469727
1697610991628693500,14.101693603515624,22.912500381469727,37.462501525878906,-20.287500381469727
1697610991648699400,14.121699462890625,21.975000381469727,38.60625076293945,-20.26875114440918
1697610991668708900,14.141708984375,20.418750762939453,39.67500305175781,-20.26875114440918
1697610991688695300,14.1616953125,18.150001525878906,41.17500305175781,-19.950000762939453
1697610991708680000,14.181679931640625,17.850000381469727,41.8125,-19.03125
1697610991728686800,14.201686767578124,15.693750381469727,42.88125228881836,-18.431251525878906
1697610991748676900,14.2216767578125,14.756250381469727,43.6875,-18.618751525878906
1697610991768684300,14.241684326171875,13.818750381469727,44.118751525878906,-19.012500762939453
1697610991788686000,14.26168603515625,11.850000381469727,45.07500076293945,-18.712501525878906
1697610991808683800,14.281683837890625,11.137500762939453,45.525001525878906,-18.225000381469727
1697610991828689200,14.301689208984374,9.46875,46.06875228881836,-18.225000381469727
1697610991848689400,14.321689453125,8.325000762939453,46.06875228881836,-17.83125114440918
1697610991868685300,14.341685302734374,6.787500381469727,46.25625228881836,-17.25
1697610991888689400,14.361689453125,6.975000381469727,46.42500305175781,-17.64375114440918
1697610991908688600,14.381688720703124,7.293750286102295,45.97500228881836,-17.962501525878906
1697610991928695300,14.4016953125,7.181250095367432,46.40625,-18.150001525878906
1697610991948698000,14.421697998046875,6.037500381469727,46.57500076293945,-18.262500762939453
1697610991968694000,14.441694091796874,6.243750095367432,46.29375076293945,-18.86250114440918
1697610991988698400,14.461698486328125,6.018750190734863,46.181251525878906,-19.6875
1697610992008678100,14.48167822265625,6.131250381469727,46.03125,-18.881250381469727
1697610992028669700,14.501669677734375,6.843750476837158,46.01250076293945,-19.575000762939453
1697610992048671000,14.5216708984375,7.893750190734863,45.65625,-19.668750762939453
1697610992068669000,14.5416689453125,8.081250190734863,45.28125,-20.287500381469727
1697610992088663300,14.561663330078124,7.987500190734863,45.375,-20.381250381469727
1697610992108674000,14.581674072265624,8.90625,44.75625228881836,-20.887500762939453
1697610992128678700,14.6016787109375,9.731250762939453,44.493751525878906,-20.587501525878906
1697610992148689200,14.621689208984375,10.668750762939453,43.931251525878906,-21.39375114440918
1697610992168693500,14.641693603515625,12.018750190734863,43.6875,-20.981250762939453
1697610992188692000,14.66169189453125,13.050000190734863,42.900001525878906,-20.887500762939453
1697610992208686600,14.6816865234375,14.381250381469727,42.431251525878906,-22.387500762939453
1697610992228689400,14.701689453125,16.256250381469727,41.38125228881836,-21.993751525878906
1697610992248699000,14.721698974609374,17.793750762939453,39.86250305175781,-22.61250114440918
1697610992268694800,14.74169482421875,18.9375,38.98125076293945,-22.537500381469727
1697610992288701200,14.761701171875,20.475000381469727,37.91250228881836,-23.043750762939453
1697610992308688400,14.7816884765625,22.556251525878906,36.86250305175781,-22.537500381469727
1697610992328696000,14.801696044921876,24.337501525878906,35.306251525878906,-21.65625
1697610992348686600,14.8216865234375,25.668750762939453,33.86250305175781,-22.162500381469727
1697610992368675000,14.841675048828124,27.337501525878906,32.64375305175781,-21.67500114440918
1697610992388683800,14.861683837890626,28.368751525878906,31.33125114440918,-21.39375114440918
1697610992408665000,14.8816650390625,29.512500762939453,30.712501525878906,-21.506250381469727
1697610992428665900,14.901665771484375,27.937501907348633,30.337501525878906,-22.23750114440918
1697610992448674300,14.92167431640625,29.92500114440918,29.568750381469727,-21.431251525878906
1697610992468677000,14.941677001953124,30.637500762939453,28.593751907348633,-21.243751525878906
1697610992488686600,14.9616865234375,30.225000381469727,28.500001907348633,-21.543750762939453
1697610992508690200,14.981690185546874,30.431251525878906,28.875001907348633,-20.83125114440918
1697610992528699400,15.001699462890626,31.387500762939453,28.61250114440918,-20.73750114440918
1697610992548702200,15.0217021484375,30.76875114440918,29.156251907348633,-20.512500762939453
1697610992568700000,15.041699951171875,29.306251525878906,30.11250114440918,-20.418750762939453
1697610992588704800,15.061704833984376,28.912500381469727,31.275001525878906,-19.98750114440918
1697610992608689000,15.08168896484375,27.86250114440918,32.4375,-20.0625
1697610992628687600,15.1016875,27.356250762939453,33.41250228881836,-19.931251525878906
1697610992648694500,15.121694580078126,25.818750381469727,35.4375,-20.006250381469727
1697610992668688000,15.14168798828125,24.67500114440918,35.962501525878906,-20.118751525878906
1697610992688678700,15.1616787109375,23.118751525878906,37.29375076293945,-20.08125114440918
1697610992708667400,15.18166748046875,22.181251525878906,38.45625305175781,-19.668750762939453
1697610992728666400,15.201666259765625,20.73750114440918,39.76875305175781,-19.650001525878906
1697610992748665600,15.22166552734375,18.056251525878906,40.837501525878906,-19.162500381469727
1697610992768677000,15.241677001953125,18.375,42.26250076293945,-19.21875
1697610992788682000,15.261681884765625,16.3125,42.900001525878906,-17.8125
1697610992808681700,15.281681640625,15.61875057220459,43.81875228881836,-17.08125114440918
1697610992828688600,15.301688720703124,14.156250953674316,44.868751525878906,-16.6875
1697610992848690000,15.32168994140625,12.918750762939453,45.48750305175781,-16.575000762939453
1697610992868686600,15.3416865234375,11.475000381469727,45.31875228881836,-15.99375057220459
1697610992888691000,15.36169091796875,10.55625057220459,46.3125,-15.581250190734863
1697610992908683300,15.381683349609375,9.318750381469727,46.66875076293945,-15.281250953674316
1697610992928672500,15.401672607421874,8.362500190734863,46.66875076293945,-15.300000190734863
1697610992948686300,15.421686279296875,8.362500190734863,46.837501525878906,-15.187500953674316
1697610992968686300,15.441686279296874,8.175000190734863,46.57500076293945,-14.906250953674316
1697610992988687000,15.46168701171875,8.58750057220459,46.85625076293945,-14.887500762939453
1697610993008671000,15.4816708984375,8.381250381469727,46.76250076293945,-14.887500762939453
1697610993028665300,15.501665283203126,8.68125057220459,46.743751525878906,-15.187500953674316
1697610993048677600,15.521677734375,9.318750381469727,46.59375,-14.77500057220459
1697610993068674800,15.5416748046875,8.475000381469727,46.76250076293945,-14.68125057220459
1697610993088675800,15.56167578125,10.143750190734863,46.59375,-14.86875057220459
1697610993108684000,15.58168408203125,11.475000381469727,45.69375228881836,-15.375000953674316
1697610993128686000,15.60168603515625,11.58750057220459,45.58125305175781,-15.881250381469727
1697610993148695000,15.621695068359376,12.61875057220459,44.98125076293945,-15.787500381469727
1697610993168697000,15.641697021484376,13.74375057220459,44.34375,-16.181251525878906
1697610993188694300,15.6616943359375,14.362500190734863,43.81875228881836,-16.40625
1697610993208687900,15.68168798828125,16.125,43.181251525878906,-17.400001525878906
1697610993228690000,15.70168994140625,17.45625114440918,42.20625305175781,-17.606250762939453
1697610993248698600,15.72169873046875,19.3125,41.212501525878906,-18.225000381469727
1697610993268694000,15.741694091796875,20.36250114440918,40.78125,-18.225000381469727
1697610993288693800,15.76169384765625,21.58125114440918,39.35625076293945,-18.337501525878906
1697610993308689200,15.781689208984375,23.137500762939453,37.57500076293945,-19.087501525878906
1697610993328685600,15.801685546875,24.993751525878906,36.337501525878906,-19.293750762939453
1697610993348679000,15.821678955078125,26.531251907348633,34.21875,-19.21875
1697610993368669400,15.84166943359375,28.725000381469727,32.98125076293945,-19.03125
1697610993388671500,15.86167138671875,29.568750381469727,31.42500114440918,-18.243751525878906
1697610993408656100,15.88165625,30.993751525878906,29.55000114440918,-18.693750381469727
1697610993428659700,15.90165966796875,31.293750762939453,28.743751525878906,-18.918750762939453
1697610993448670500,15.92167041015625,32.64375305175781,27.168750762939453,-18.637500762939453
1697610993468675000,15.941675048828126,32.75625228881836,26.793750762939453,-19.03125
1697610993488685800,15.961685791015626,33.375,26.17500114440918,-19.05000114440918
1697610993508683300,15.981683349609375,33.056251525878906,25.912500381469727,-19.068750381469727
1697610993528683500,16.00168359375,33.056251525878906,25.89375114440918,-19.462501525878906
1697610993548690700,16.021690673828125,32.4375,26.17500114440918,-19.162500381469727
1697610993568691700,16.041691650390625,32.212501525878906,26.681251525878906,-19.556251525878906
1697610993588692000,16.06169189453125,31.593751907348633,27.76875114440918,-19.443750381469727
1697610993608702700,16.08170263671875,30.76875114440918,28.181251525878906,-19.931251525878906
1697610993628700000,16.101699951171874,29.625001907348633,29.343751907348633,-19.725000381469727
1697610993648706800,16.121706787109375,28.687501907348633,30.39375114440918,-20.118751525878906
1697610993668697600,16.141697509765624,27.356250762939453,31.89375114440918,-19.6875
1697610993688686000,16.16168603515625,26.325000762939453,33.056251525878906,-19.256250381469727
1697610993708683500,16.18168359375,24.375001907348633,35.28750228881836,-18.825000762939453
1697610993728683000,16.20168310546875,23.53125,36.16875076293945,-19.012500762939453
1697610993748676900,16.2216767578125,22.40625,36.95625305175781,-19.106250762939453
1697610993768684300,16.241684326171875,20.64375114440918,38.118751525878906,-18.39375114440918
1697610993788686300,16.261686279296875,18.58125114440918,39.01875305175781,-17.981250762939453
1697610993808684000,16.28168408203125,16.725000381469727,39.900001525878906,-17.493751525878906
1697610993828689400,16.301689453125,16.012500762939453,40.44375228881836,-16.98750114440918
1697610993848689700,16.321689697265626,13.83750057220459,41.23125076293945,-16.6875
1697610993868685600,16.341685546875,12.281250953674316,41.868751525878906,-16.481250762939453
1697610993888689700,16.361689697265625,11.137500762939453,41.75625228881836,-16.51875114440918
1697610993908689200,16.381689208984376,10.106250762939453,41.775001525878906,-16.125
1697610993928687600,16.4016875,9.168750762939453,42.03750228881836,-15.61875057220459
1697610993948690400,16.4216904296875,7.612500190734863,41.681251525878906,-15.656250953674316
1697610993968688600,16.441688720703127,8.02500057220459,41.681251525878906,-15.24375057220459
1697610993988696300,16.4616962890625,7.743750095367432,41.88750076293945,-14.325000762939453
1697610994008677000,16.481677001953123,7.537500381469727,41.625,-14.343750953674316
1697610994028669200,16.501669189453125,7.537500381469727,41.79375076293945,-14.231250762939453
1697610994048671000,16.5216708984375,8.0625,41.28750228881836,-13.631250381469727
1697610994068669200,16.541669189453124,8.043750762939453,41.00625228881836,-14.156250953674316
1697610994088671000,16.5616708984375,8.268750190734863,40.743751525878906,-13.950000762939453
1697610994108672800,16.5816728515625,9.318750381469727,41.025001525878906,-13.312500953674316
1697610994128677400,16.601677490234376,9.61875057220459,40.931251525878906,-13.518750190734863
1697610994148688600,16.621688720703126,10.74375057220459,40.66875076293945,-14.02500057220459
1697610994168693000,16.64169287109375,11.887500762939453,40.23750305175781,-14.02500057220459
1697610994188692000,16.66169189453125,12.937500953674316,40.14375305175781,-13.706250190734863
1697610994208686600,16.6816865234375,13.55625057220459,39.95625305175781,-14.40000057220459
1697610994228689400,16.701689453125,15.506250381469727,39.056251525878906,-15.112500190734863
1697610994248691000,16.72169091796875,16.743751525878906,38.53125,-15.093750953674316
1697610994268698000,16.741697998046874,17.0625,37.91250228881836,-15.412500381469727
1697610994288697000,16.761697021484373,19.42500114440918,37.20000076293945,-16.012500762939453
1697610994308684500,16.7816845703125,22.125,35.60625076293945,-16.3125
1697610994328681500,16.801681396484376,22.631250381469727,34.89375305175781,-16.631250381469727
1697610994348678000,16.821677978515623,24.506250381469727,34.087501525878906,-16.931251525878906
1697610994368672000,16.841672119140625,25.537500381469727,32.493751525878906,-17.17500114440918
1697610994388660500,16.861660400390626,26.45625114440918,31.51875114440918,-17.587501525878906
1697610994408655600,16.881655517578125,27.787500381469727,30.506250381469727,-18.712501525878906
1697610994428671000,16.9016708984375,29.231250762939453,29.718751907348633,-18.506250381469727
1697610994448679400,16.921679443359373,30.168750762939453,28.462501525878906,-19.03125
1697610994468681700,16.941681640625,30.150001525878906,28.200000762939453,-19.23750114440918
1697610994488690400,16.9616904296875,30.468751907348633,27.656251907348633,-19.462501525878906
1697610994508693000,16.98169287109375,29.418750762939453,27.918750762939453,-19.762500762939453
1697610994528701700,17.00170166015625,30.562501907348633,28.087501525878906,-20.043750762939453
1697610994548704000,17.0217041015625,30.243751525878906,27.993751525878906,-20.45625114440918
1697610994568701200,17.041701171875,28.162500381469727,29.493751525878906,-20.45625114440918
1697610994588698000,17.061697998046874,28.068750381469727,31.087501525878906,-20.400001525878906
1697610994608699100,17.08169921875,27.86250114440918,31.350000381469727,-20.700000762939453
1697610994628695800,17.10169580078125,27.131250381469727,32.23125076293945,-20.681251525878906
1697610994648693800,17.12169384765625,25.275001525878906,34.087501525878906,-21.056251525878906
1697610994668687000,17.14168701171875,24.131250381469727,35.212501525878906,-21.243751525878906
1697610994688677600,17.161677734375,23.325000762939453,36.5625,-20.418750762939453
1697610994708677600,17.181677734375,21.450000762939453,37.80000305175781,-20.606250762939453
1697610994728674000,17.201674072265625,19.70625114440918,39.48750305175781,-20.08125114440918
1697610994748675300,17.22167529296875,18.46875,40.743751525878906,-19.462501525878906
1697610994768684000,17.24168408203125,15.05625057220459,42.35625076293945,-18.543750762939453
1697610994788686800,17.261686767578126,15.168750762939453,42.618751525878906,-18.243751525878906
1697610994808684800,17.281684814453126,14.343750953674316,43.42500305175781,-18.037500381469727
1697610994828690400,17.3016904296875,12.168750762939453,44.47500228881836,-18.525001525878906
1697610994848690400,17.3216904296875,11.756250381469727,45.46875,-17.793750762939453
1697610994868686300,17.341686279296876,8.756250381469727,45.63750076293945,-17.53125
1697610994888690200,17.361690185546873,9.075000762939453,46.44375228881836,-17.006250381469727
1697610994908681500,17.381681396484375,6.693750381469727,46.98750305175781,-16.42500114440918
1697610994928692000,17.40169189453125,6.581250190734863,46.61250305175781,-17.137500762939453
1697610994948694000,17.421694091796876,6.150000095367432,46.5,-17.64375114440918
1697610994968693500,17.441693603515624,6.468750476837158,46.57500076293945,-18.243751525878906
1697610994988691200,17.461691162109375,6.768750190734863,46.40625,-18.46875
1697610995008675000,17.481675048828127,6.543750286102295,46.03125,-18.975000381469727
1697610995028668400,17.50166845703125,6.768750190734863,45.9375,-18.76875114440918
1697610995048671700,17.521671630859377,7.162500381469727,45.150001525878906,-18.787500381469727
1697610995068669400,17.54166943359375,7.575000286102295,45.39375305175781,-19.481250762939453
1697610995088671200,17.561671142578124,9.018750190734863,45.03750228881836,-20.17500114440918
1697610995108673800,17.581673828125,9.637500762939453,44.400001525878906,-20.587501525878906
1697610995128678400,17.601678466796876,10.46250057220459,43.85625076293945,-21
1697610995148689000,17.62168896484375,10.55625057220459,43.6875,-21.39375114440918
1697610995168693200,17.641693359375,12,42.97500228881836,-21.618751525878906
1697610995188692200,17.661692138671874,14.175000190734863,41.45625305175781,-21.825000762939453
1697610995208697900,17.68169775390625,14.887500762939453,40.462501525878906,-22.537500381469727
1697610995228698000,17.701697998046875,16.743751525878906,38.98125076293945,-22.162500381469727
1697610995248697300,17.721697265625,18.918750762939453,37.556251525878906,-22.96875
1697610995268700400,17.741700439453126,19.743751525878906,36.31875228881836,-22.89375114440918
1697610995288698600,17.76169873046875,22.125,34.63125228881836,-23.118751525878906
1697610995308701700,17.78170166015625,23.887500762939453,33.056251525878906,-22.725000381469727
1697610995328683500,17.80168359375,25.23750114440918,31.106250762939453,-22.556251525878906
1697610995348676400,17.82167626953125,26.36250114440918,30.056251525878906,-22.575000762939453
1697610995368667000,17.8416669921875,27.412500381469727,28.218751907348633,-21.918750762939453
1697610995388667400,17.86166748046875,28.968751907348633,26.981250762939453,-21.825000762939453
1697610995408660500,17.881660400390626,28.743751525878906,26.26875114440918,-22.14375114440918
1697610995428674300,17.90167431640625,29.26875114440918,25.743751525878906,-21.75
1697610995448681500,17.921681396484374,29.475000381469727,25.912500381469727,-21.731250762939453
1697610995468683000,17.94168310546875,28.968751907348633,25.818750381469727,-21.95625114440918
1697610995488691200,17.961691162109375,29.475000381469727,26.17500114440918,-22.14375114440918
1697610995508686000,17.98168603515625,27.825000762939453,27.225000381469727,-22.125
1697610995528684800,18.001684814453125,27.712501525878906,27.843751907348633,-22.3125
1697610995548691200,18.021691162109374,26.062501907348633,29.718751907348633,-22.181251525878906
1697610995568684000,18.04168408203125,25.125001907348633,30.58125114440918,-22.575000762939453
1697610995588684300,18.061684326171875,24.412500381469727,31.837501525878906,-22.256250381469727
1697610995608689700,18.081689697265624,23.17500114440918,33.58125305175781,-22.51875114440918
1697610995628690000,18.10168994140625,22.03125,34.743751525878906,-22.200000762939453
1697610995648689400,18.121689453125,19.762500762939453,36.86250305175781,-22.068750381469727
1697610995668684500,18.1416845703125,18.318750381469727,38.19375228881836,-22.162500381469727
1697610995688677600,18.161677734375,16.350000381469727,39.712501525878906,-21.431251525878906
1697610995708672500,18.181672607421874,14.887500762939453,40.03125,-21.95625114440918
1697610995728660500,18.201660400390626,13.237500190734863,41.28750228881836,-21.431251525878906
1697610995748665600,18.22166552734375,12.018750190734863,42.993751525878906,-20.493751525878906
1697610995768677400,18.241677490234373,10.78125,43.53750228881836,-20.193750381469727
1697610995788682800,18.261682861328126,7.368750095367432,44.41875076293945,-19.818750381469727
1697610995808682800,18.281682861328125,7.575000286102295,44.94375228881836,-19.59375
1697610995828689700,18.301689697265626,6.318750381469727,45.20625305175781,-19.61250114440918
1697610995848690700,18.321690673828126,6.112500190734863,45.48750305175781,-19.5
1697610995868687400,18.341687255859377,5.381250381469727,45.46875,-19.61250114440918
1697610995888691500,18.36169140625,5.081250190734863,45.993751525878906,-19.80000114440918
1697610995908690700,18.381690673828125,4.987500190734863,45.82500076293945,-19.40625
1697610995928704000,18.4017041015625,5.381250381469727,46.01250076293945,-19.481250762939453
1697610995948703200,18.421703125,5.381250381469727,45.993751525878906,-19.70625114440918
1697610995968698000,18.441697998046877,6.337500095367432,45.82500076293945,-19.78125
1697610995988693500,18.461693603515624,6.843750476837158,45.82500076293945,-19.78125
1697610996008674000,18.481674072265626,7.162500381469727,45.65625,-19.481250762939453
1697610996028680700,18.5016806640625,7.987500190734863,45.48750305175781,-19.78125
1697610996048668200,18.521668212890624,8.8125,45.20625305175781,-19.96875
1697610996068673500,18.541673583984377,10.36875057220459,44.94375228881836,-20.0625
1697610996088685300,18.561685302734375,11.081250190734863,44.493751525878906,-20.36250114440918
1697610996108695800,18.58169580078125,12.112500190734863,43.44375228881836,-20.587501525878906
1697610996128694500,18.601694580078124,13.987500190734863,43.087501525878906,-20.775001525878906
1697610996148700400,18.621700439453125,16.575000762939453,41.94375228881836,-20.962501525878906
1697610996168689200,18.641689208984374,17.493751525878906,41.04375076293945,-21.58125114440918
1697610996188698600,18.66169873046875,19.462501525878906,39.525001525878906,-22.200000762939453
1697610996208702000,18.681701904296876,21.525001525878906,37.57500076293945,-22.631250381469727
1697610996228692500,18.7016923828125,22.668750762939453,36.16875076293945,-22.350000381469727
1697610996248691000,18.72169091796875,25.350000381469727,34.48125076293945,-22.762500762939453
1697610996268695000,18.741695068359373,26.793750762939453,33.150001525878906,-22.875
1697610996288694300,18.7616943359375,28.031251907348633,31.218751907348633,-22.725000381469727
1697610996308681500,18.781681396484377,29.17500114440918,30.506250381469727,-22.912500381469727
1697610996328679700,18.8016796875,30.20625114440918,28.912500381469727,-22.443750381469727
1697610996348674600,18.821674560546874,30.937501907348633,28.312501907348633,-22.256250381469727
1697610996368667100,18.841667236328124,30.30000114440918,27.937501907348633,-23.08125114440918
1697610996388672500,18.861672607421873,30.618751525878906,27.937501907348633,-22.575000762939453
1697610996408665000,18.8816650390625,30.825000762939453,27.937501907348633,-23.17500114440918
1697610996428678000,18.901677978515625,29.26875114440918,28.912500381469727,-22.556251525878906
1697610996448684300,18.921684326171874,29.793750762939453,29.793750762939453,-22.631250381469727
1697610996468685000,18.94168505859375,28.556251525878906,31.406251907348633,-22.40625
1697610996488692700,18.961692626953123,27.525001525878906,32.64375305175781,-22.275001525878906
1697610996508694300,18.9816943359375,26.606250762939453,33.07500076293945,-22.275001525878906
1697610996528702500,19.001702392578125,25.162500381469727,35.025001525878906,-22.05000114440918
1697610996548704300,19.021704345703125,23.700000762939453,36.431251525878906,-22.33125114440918
1697610996568693500,19.041693603515625,21.9375,37.837501525878906,-22.61250114440918
1697610996588688600,19.061688720703124,20.90625,39.1875,-22.087501525878906
1697610996608692000,19.08169189453125,18.731250762939453,40.59375,-22.181251525878906
1697610996628690700,19.101690673828124,17.17500114440918,41.47500228881836,-21.975000381469727
1697610996648689200,19.121689208984375,15.412500381469727,42.35625076293945,-22.181251525878906
1697610996668684800,19.141684814453125,13.36875057220459,43.59375,-21.5625
1697610996688687900,19.16168798828125,12.206250190734863,44.025001525878906,-21.881250381469727
1697610996708675600,19.181675537109374,10.55625057220459,45.46875,-21.243751525878906
1697610996728677000,19.201677001953126,8.49375057220459,45.54375076293945,-21.1875
1697610996748677600,19.221677734375,6.637500286102295,45.73125076293945,-20.381250381469727
1697610996768685600,19.241685546875,6.318750381469727,45.63750076293945,-20.606250762939453
1697610996788688000,19.26168798828125,5.681250095367432,45.806251525878906,-20.8125
1697610996808685600,19.281685546875,5.587500095367432,45.45000076293945,-20.418750762939453
1697610996828691000,19.30169091796875,5.475000381469727,45.54375076293945,-20.418750762939453
1697610996848691000,19.32169091796875,5.90625,45.375,-20.306251525878906
1697610996868686600,19.3416865234375,6.112500190734863,45.20625305175781,-20.118751525878906
1697610996888692000,19.36169189453125,6.525000095367432,45.39375305175781,-19.59375
1697610996908684300,19.381684326171875,6.750000476837158,45.150001525878906,-18.693750381469727
1697610996928680700,19.4016806640625,7.162500381469727,45.48750305175781,-19.181251525878906
1697610996948685300,19.421685302734375,8.006250381469727,45.337501525878906,-18.67500114440918
1697610996968677000,19.441677001953124,8.943750381469727,44.53125,-18.375
1697610996988679000,19.461678955078124,10.36875057220459,43.98750305175781,-19.6875
1697610997008665300,19.481665283203125,11.8125,43.44375228881836,-19.98750114440918
1697610997028661200,19.5016611328125,12.52500057220459,42.46875,-20.606250762939453
1697610997048665900,19.521665771484376,14.49375057220459,42.01875305175781,-21.09375
1697610997068673300,19.54167333984375,15.225000381469727,41.400001525878906,-21.09375
1697610997088686300,19.561686279296875,16.575000762939453,41.04375076293945,-21.48750114440918
1697610997108693000,19.58169287109375,17.8125,40.275001525878906,-20.587501525878906
1697610997128693000,19.60169287109375,20.118751525878906,39.84375,-20.26875114440918
1697610997148700000,19.621699951171873,21.356250762939453,38.51250076293945,-20.193750381469727
1697610997168701000,19.641700927734377,23.418750762939453,36.39375305175781,-20.512500762939453
1697610997188697000,19.661697021484375,24.337501525878906,35.23125076293945,-21.131250381469727
1697610997208700700,19.68170068359375,25.98750114440918,32.73750305175781,-21.806251525878906
1697610997228692700,19.701692626953125,27.525001525878906,31.125001907348633,-22.125
1697610997248684000,19.72168408203125,28.968751907348633,29.45625114440918,-21.95625114440918
1697610997268690000,19.74168994140625,30.731250762939453,27.881250381469727,-21.262500762939453
1697610997288690400,19.7616904296875,30.412500381469727,27.168750762939453,-21.881250381469727
1697610997308679700,19.7816796875,31.031251907348633,26.08125114440918,-22.21875
1697610997328678000,19.801677978515624,31.781251907348633,26.64375114440918,-21.1875
1697610997348678000,19.821677978515623,32.41875076293945,26.231250762939453,-20.381250381469727
1697610997368669200,19.841669189453125,31.687501907348633,26.775001525878906,-19.875
1697610997388671200,19.861671142578125,30.86250114440918,27.843751907348633,-19.537500381469727
1697610997408663800,19.881663818359375,29.83125114440918,29.587501525878906,-20.418750762939453
1697610997428677000,19.901677001953125,29.100000381469727,30.20625114440918,-20.512500762939453
1697610997448683800,19.921683837890626,28.087501525878906,32.70000076293945,-19.743751525878906
1697610997468684800,19.941684814453126,26.231250762939453,33.95625305175781,-19.443750381469727
1697610997488692700,19.961692626953123,24.48750114440918,36.16875076293945,-19.106250762939453
1697610997508686800,19.981686767578125,23.662500381469727,37.23750305175781,-18.67500114440918
1697610997528685600,20.001685546875,21.58125114440918,38.56875228881836,-18.262500762939453
1697610997548696800,20.02169677734375,20.34375,39.54375076293945,-18.056251525878906
1697610997568689400,20.041689453125,18.48750114440918,40.61250305175781,-17.64375114440918
1697610997588686000,20.06168603515625,16.856250762939453,41.775001525878906,-16.631250381469727
1697610997608690700,20.081690673828124,15.937500953674316,43.125,-15.881250381469727
1697610997628682800,20.101682861328126,13.762500762939453,43.66875076293945,-15.61875057220459
1697610997648672800,20.1216728515625,13.143750190734863,44.025001525878906,-14.906250953674316
1697610997668671700,20.141671630859374,11.49375057220459,44.83125305175781,-14.49375057220459
1697610997688668700,20.161668701171877,10.78125,45.54375076293945,-13.875000953674316
1697610997708661800,20.181661865234375,9.318750381469727,45.46875,-13.800000190734863
1697610997728671200,20.201671142578125,8.90625,45.806251525878906,-13.706250190734863
1697610997748686000,20.22168603515625,8.700000762939453,45.900001525878906,-13.593750953674316
1697610997768693500,20.241693603515625,8.381250381469727,45.63750076293945,-13.406250953674316
1697610997788694800,20.26169482421875,8.793750762939453,45.375,-13.612500190734863
1697610997808691200,20.281691162109375,8.90625,45.20625305175781,-13.312500953674316
1697610997828695300,20.3016953125,9.112500190734863,45.28125,-13.612500190734863
1697610997848694300,20.3216943359375,9.84375,45.03750228881836,-13.293750762939453
1697610997868689000,20.34168896484375,10.36875057220459,44.493751525878906,-13.706250190734863
1697610997888684300,20.361684326171876,10.78125,44.04375076293945,-13.425000190734863
1697610997908684500,20.3816845703125,12.206250190734863,43.76250076293945,-14.512500762939453
1697610997928692500,20.4016923828125,13.143750190734863,43.05000305175781,-14.831250190734863
1697610997948694300,20.4216943359375,14.49375057220459,42.26250076293945,-14.831250190734863
1697610997968683800,20.441683837890626,15.412500381469727,41.53125,-15.543750762939453
1697610997988682500,20.4616826171875,17.587501525878906,41.36250305175781,-15.71250057220459
1697610998008678100,20.48167822265625,18.618751525878906,40.38750076293945,-15.937500953674316
1697610998028674600,20.501674560546874,20.681251525878906,38.79375076293945,-15.956250190734863
1697610998048666000,20.521666015625,22.350000381469727,38.19375228881836,-15.937500953674316
1697610998068672500,20.541672607421877,23.475000381469727,36.91875076293945,-17.17500114440918
1697610998088685000,20.56168505859375,25.650001525878906,34.80000305175781,-16.89375114440918
1697610998108684300,20.581684326171874,26.681251525878906,34.81875228881836,-16.78125
1697610998128685800,20.601685791015626,28.968751907348633,32.34375,-16.725000381469727
1697610998148694500,20.621694580078124,29.887500762939453,31.106250762939453,-16.931251525878906
1697610998168696600,20.641696533203124,31.650001525878906,29.343751907348633,-16.462501525878906
1697610998188693800,20.66169384765625,31.968751907348633,28.818750381469727,-16.575000762939453
1697610998208698600,20.68169873046875,32.79375076293945,28.181251525878906,-16.78125
1697610998228691500,20.70169140625,33.20625305175781,27.20625114440918,-16.80000114440918
1697610998248688600,20.721688720703124,32.88750076293945,27.037500381469727,-17.025001525878906
1697610998268682200,20.74168212890625,33.30000305175781,27.11250114440918,-16.818750381469727
1697610998288678100,20.76167822265625,33.09375,27.656251907348633,-17.100000381469727
1697610998308670200,20.781670166015626,32.775001525878906,28.33125114440918,-17.493751525878906
1697610998328671200,20.801671142578126,32.0625,29.062501907348633,-17.26875114440918
1697610998348668400,20.82166845703125,30.918750762939453,30.712501525878906,-17.756250381469727
1697610998368662500,20.84166259765625,30.318750381469727,31.725000381469727,-17.025001525878906
1697610998388673300,20.86167333984375,29.587501525878906,32.681251525878906,-17.212501525878906
1697610998408666400,20.881666259765623,27.093751907348633,34.44375228881836,-17.287500381469727
1697610998428679700,20.9016796875,26.26875114440918,35.94375228881836,-17.15625
1697610998448686000,20.92168603515625,24.093751907348633,37.98750305175781,-16.837501525878906
1697610998468686800,20.941686767578126,22.856250762939453,38.79375076293945,-16.837501525878906
1697610998488694300,20.9616943359375,20.793750762939453,40.743751525878906,-16.59375
1697610998508688400,20.9816884765625,19.556251525878906,41.71875,-16.59375
1697610998528686600,21.0016865234375,18.09375,42.50625228881836,-16.59375
1697610998548685800,21.021685791015624,15.412500381469727,44.00625228881836,-16.275001525878906
1697610998568683500,21.04168359375,14.49375057220459,45.16875076293945,-15.656250953674316
1697610998588681700,21.061681640625,12.61875057220459,45.618751525878906,-15.562500953674316
1697610998608676600,21.081676513671876,11.381250381469727,46.23750305175781,-15.262500762939453
1697610998628672300,21.10167236328125,9.61875057220459,46.743751525878906,-15.581250190734863
1697610998648665000,21.1216650390625,8.475000381469727,47.17500305175781,-15.99375057220459
1697610998668667000,21.1416669921875,7.950000286102295,46.650001525878906,-15.71250057220459
1697610998688668400,21.16166845703125,7.837500095367432,47.17500305175781,-16.200000762939453
1697610998708664600,21.18166455078125,7.931250095367432,46.72500228881836,-16.012500762939453
1697610998728674000,21.201674072265625,7.631250381469727,46.53750228881836,-16.3125
1697610998748688600,21.221688720703124,9.61875057220459,46.72500228881836,-16.087501525878906
1697610998768695800,21.24169580078125,9.71250057220459,46.462501525878906,-16.181251525878906
1697610998788696800,21.26169677734375,9.61875057220459,46.20000076293945,-15.99375057220459
1697610998808692700,21.281692626953124,10.443750381469727,46.38750076293945,-15.975000381469727
1697610998828696600,21.301696533203124,12.206250190734863,45.95625305175781,-15.656250953674316
1697610998848695300,21.3216953125,12.300000190734863,46.03125,-16.368751525878906
1697610998868689700,21.341689697265625,13.950000762939453,45.22500228881836,-16.875
1697610998888684800,21.361684814453124,14.981250762939453,44.51250076293945,-16.875
1697610998908685000,21.38168505859375,16.012500762939453,43.80000305175781,-17.587501525878906
1697610998928692500,21.4016923828125,18.28125,42.993751525878906,-18.39375114440918
1697610998948697000,21.421697021484373,20.043750762939453,40.95000076293945,-18.618751525878906
1697610998968686600,21.4416865234375,21.39375114440918,40.23750305175781,-18.618751525878906
1697610998988684800,21.461684814453125,22.537500381469727,39.712501525878906,-18.618751525878906
1697610999008670000,21.481669921875,24.881250381469727,37.48125076293945,-19.762500762939453
1697610999028663800,21.501663818359376,25.931251525878906,35.98125076293945,-19.481250762939453
1697610999048674600,21.521674560546874,27.881250381469727,33.95625305175781,-19.51875114440918
1697610999068679400,21.541679443359374,29.64375114440918,32.79375076293945,-19.61250114440918
1697610999088690400,21.5616904296875,31.106250762939453,31.125001907348633,-19.350000381469727
1697610999108695300,21.5816953125,31.61250114440918,30.243751525878906,-19.462501525878906
1697610999128694300,21.6016943359375,32.23125076293945,29.45625114440918,-19.387500762939453
1697610999148700200,21.6217001953125,32.13750076293945,28.650001525878906,-19.293750762939453
1697610999168700400,21.641700439453125,32.868751525878906,28.481250762939453,-18.993751525878906
1697610999188696300,21.6616962890625,32.4375,28.575000762939453,-19.106250762939453
1697610999208681000,21.681680908203123,32.55000305175781,28.575000762939453,-18.881250381469727
1697610999228685800,21.701685791015624,32.23125076293945,28.856250762939453,-18.58125114440918
1697610999248684300,21.721684326171875,31.931251525878906,29.45625114440918,-18.975000381469727
1697610999268690200,21.741690185546876,31.293750762939453,29.718751907348633,-19.181251525878906
1697610999288685600,21.761685546875,30.375001907348633,31.406251907348633,-19.14375114440918
1697610999308675600,21.781675537109376,29.868751525878906,31.931251525878906,-19.03125
1697610999328675000,21.801675048828123,28.61250114440918,33.16875076293945,-19.42500114440918
1697610999348671000,21.8216708984375,27.993751525878906,34.03125,-19.70625114440918
1697610999368664000,21.8416640625,27.375001907348633,34.931251525878906,-18.881250381469727
1697610999388674000,21.861674072265625,26.55000114440918,35.71875,-19.387500762939453
1697610999408666600,21.88166650390625,25.106250762939453,36.78750228881836,-19.162500381469727
1697610999428679700,21.9016796875,24.58125114440918,37.85625076293945,-19.05000114440918
1697610999448685800,21.921685791015626,22.70625114440918,38.53125,-19.556251525878906
1697610999468686300,21.941686279296874,20.943750381469727,39.95625305175781,-19.856250762939453
1697610999488693500,21.961693603515624,19.912500381469727,40.462501525878906,-20.34375
1697610999508702200,21.9817021484375,18.150001525878906,41.26875305175781,-19.743751525878906
1697610999528697000,22.001697021484375,17.64375114440918,42.07500076293945,-19.631250381469727
1697610999548692200,22.021692138671874,14.737500190734863,43.14375305175781,-18.9375
1697610999568698600,22.04169873046875,13.612500190734863,43.66875076293945,-18.637500762939453
1697610999588693000,22.06169287109375,13.18125057220459,43.76250076293945,-18.543750762939453
1697610999608676600,22.081676513671876,11.756250381469727,44.47500228881836,-17.73750114440918
1697610999628671200,22.101671142578127,11.02500057220459,44.83125305175781,-18.037500381469727
1697610999648667000,22.1216669921875,10.40625,45,-17.943750381469727
1697610999668676600,22.141676513671875,9.356250762939453,45,-17.943750381469727
1697610999688672000,22.161672119140626,9.05625057220459,44.85000228881836,-16.950000762939453
1697610999708672000,22.181672119140625,8.643750190734863,45.01875305175781,-17.15625
1697610999728679000,22.201678955078126,7.931250095367432,45.73125076293945,-16.537500381469727
1697610999748692000,22.22169189453125,7.425000190734863,45.84375,-15.637500762939453
1697610999768686300,22.241686279296875,6.600000381469727,45.67500305175781,-15.24375057220459
1697610999788689000,22.26168896484375,5.456250190734863,46.275001525878906,-16.068750381469727
1697610999808686600,22.2816865234375,5.981250286102295,46.29375076293945,-15.131250381469727
1697610999828691700,22.301691650390627,5.662500381469727,45.9375,-15.356250762939453
1697610999848691700,22.321691650390626,6.300000190734863,46.21875,-14.625000953674316
1697610999868681000,22.341680908203124,7.443750381469727,45.525001525878906,-14.325000762939453
1697610999888678700,22.3616787109375,8.475000381469727,45.41250228881836,-15.33750057220459
1697610999908673000,22.381673095703125,8.77500057220459,44.962501525878906,-15.43125057220459
1697610999928672500,22.401672607421876,9.61875057220459,45.243751525878906,-14.906250953674316
1697610999948672000,22.421672119140624,9.825000762939453,45.26250076293945,-14.193750381469727
1697610999968668000,22.44166796875,9.206250190734863,45.525001525878906,-14.30625057220459
1697610999988672000,22.461672119140626,10.443750381469727,45.35625076293945,-14.606250762939453
1697611000008666600,22.48166650390625,10.443750381469727,45.16875076293945,-15.318750381469727
1697611000028665300,22.501665283203124,10.631250381469727,44.34375,-15.937500953674316
1697611000048666000,22.521666015625,11.568750381469727,44.08125305175781,-16.03125
1697611000068674000,22.541674072265625,12.71250057220459,43.38750076293945,-15.937500953674316
1697611000088687400,22.561687255859376,14.043750762939453,43.368751525878906,-16.61250114440918
1697611000108694000,22.581694091796876,15.075000762939453,42.1875,-17.756250381469727
1697611000128694000,22.601694091796876,16.3125,42.03750228881836,-17.137500762939453
1697611000148700700,22.62170068359375,17.962501525878906,40.51875305175781,-17.756250381469727
1697611000168701400,22.641701416015625,18.58125114440918,39.88125228881836,-18.375
1697611000188697600,22.661697509765624,19.818750381469727,38.8125,-18.993751525878906
1697611000208682200,22.68168212890625,21.787500381469727,37.48125076293945,-18.693750381469727
1697611000228681200,22.70168115234375,23.137500762939453,36.431251525878906,-18.712501525878906
1697611000248681000,22.721680908203126,24.806251525878906,35.56875228881836,-18.39375114440918
1697611000268676900,22.7416767578125,25.931251525878906,34.14375305175781,-18.11250114440918
1697611000288673500,22.761673583984376,27.375001907348633,32.64375305175781,-18.356250762939453
1697611000308668000,22.78166796875,28.200000762939453,31.23750114440918,-18.375
1697611000328673800,22.801673828125,29.137500762939453,29.45625114440918,-18.20625114440918
1697611000348672000,22.821672119140626,30.075000762939453,28.931251525878906,-18.01875114440918
1697611000368673300,22.84167333984375,30.375001907348633,27.975000381469727,-18.037500381469727
1697611000388681500,22.861681396484375,30.993751525878906,27.356250762939453,-17.64375114440918
1697611000408672500,22.881672607421876,31.012500762939453,27.262500762939453,-17.4375
1697611000428684000,22.90168408203125,30.075000762939453,27.356250762939453,-17.25
1697611000448689000,22.92168896484375,30.48750114440918,28.087501525878906,-17.118751525878906
1697611000468688400,22.9416884765625,30.693750381469727,28.256250381469727,-17.212501525878906
1697611000488694800,22.96169482421875,30.093751907348633,28.70625114440918,-16.5
1697611000508698600,22.98169873046875,29.156251907348633,29.493751525878906,-16.70625114440918
1697611000528686600,23.0016865234375,28.968751907348633,30.67500114440918,-16.162500381469727
1697611000548684500,23.0216845703125,28.125001907348633,31.275001525878906,-16.462501525878906
1697611000568686300,23.041686279296876,27.412500381469727,32.4375,-16.03125
1697611000588695300,23.0616953125,27.225000381469727,32.90625,-15.318750381469727
1697611000608679200,23.08167919921875,26.193750381469727,33.88125228881836,-15.093750953674316
1697611000628673500,23.101673583984375,25.575000762939453,34.85625076293945,-14.77500057220459
1697611000648665000,23.1216650390625,24.750001907348633,36.1875,-14.550000190734863
1697611000668669000,23.1416689453125,23.92500114440918,36.712501525878906,-14.456250190734863
1697611000688667000,23.1616669921875,23.306251525878906,37.59375,-14.737500190734863
1697611000708668000,23.18166796875,22.068750381469727,38.47500228881836,-14.831250190734863
1697611000728676600,23.201676513671874,21.543750762939453,39.1875,-14.512500762939453
1697611000748690400,23.2216904296875,19.462501525878906,39.97500228881836,-14.718750953674316
1697611000768696800,23.24169677734375,19.89375114440918,40.96875,-14.68125057220459
1697611000788697000,23.261697021484373,18.84375,41.212501525878906,-14.906250953674316
1697611000808692700,23.281692626953124,17.71875,42.35625076293945,-14.887500762939453
1697611000828696300,23.3016962890625,17.08125114440918,42.26250076293945,-15.206250190734863
1697611000848694800,23.32169482421875,15.956250190734863,42.97500228881836,-14.793750762939453
1697611000868681700,23.341681640625,15.637500762939453,43.6875,-14.475000381469727
1697611000888682200,23.36168212890625,13.46250057220459,44.47500228881836,-14.475000381469727
1697611000908675800,23.38167578125,13.46250057220459,44.75625228881836,-14.175000190734863
1697611000928674300,23.40167431640625,12.543750762939453,45.5625,-13.856250762939453
1697611000948673800,23.421673828125,12.131250381469727,45.375,-13.968750953674316
1697611000968669400,23.44166943359375,11.193750381469727,45.54375076293945,-13.987500190734863
1697611000988673500,23.461673583984375,11.193750381469727,45.82500076293945,-13.875000953674316
1697611001008661500,23.48166162109375,10.46250057220459,46.61250305175781,-14.268750190734863
1697611001028659200,23.5016591796875,10.256250381469727,46.25625228881836,-13.762500762939453
1697611001048672500,23.521672607421873,9.112500190734863,46.51875305175781,-13.987500190734863
1697611001068679200,23.54167919921875,8.700000762939453,46.51875305175781,-13.987500190734863
1697611001088691200,23.561691162109376,9.33750057220459,47.04375076293945,-13.856250762939453
1697611001108696600,23.581696533203125,9.112500190734863,46.61250305175781,-13.668750762939453
1697611001128695800,23.60169580078125,8.49375057220459,46.85625076293945,-14.287500381469727
1697611001148702000,23.621701904296874,8.381250381469727,46.6875,-14.193750381469727
1697611001168702000,23.641701904296873,8.475000381469727,46.57500076293945,-14.793750762939453
1697611001188699000,23.661698974609376,8.793750762939453,46.6875,-14.287500381469727
1697611001208694500,23.681694580078126,8.175000190734863,46.76250076293945,-14.887500762939453
1697611001228694800,23.70169482421875,8.475000381469727,46.57500076293945,-14.887500762939453
1697611001248702000,23.721701904296875,8.175000190734863,46.57500076293945,-15.000000953674316
1697611001268684500,23.7416845703125,8.58750057220459,46.5,-14.68125057220459
1697611001288678100,23.76167822265625,8.58750057220459,46.3125,-14.700000762939453
1697611001308669200,23.781669189453126,8.175000190734863,46.66875076293945,-14.793750762939453
1697611001328670700,23.801670654296874,8.49375057220459,46.6875,-14.49375057220459
1697611001348667600,23.821667724609377,8.475000381469727,46.21875,-15.112500190734863
1697611001368669400,23.84166943359375,8.362500190734863,46.23750305175781,-14.906250953674316
1697611001388678100,23.86167822265625,8.0625,46.14375305175781,-14.30625057220459
1697611001408669700,23.881669677734376,8.0625,46.21875,-14.906250953674316
1697611001428682000,23.901681884765626,8.77500057220459,46.125,-15.206250190734863
1697611001448687400,23.921687255859375,8.268750190734863,45.95625305175781,-15.412500381469727
1697611001468687400,23.941687255859375,8.475000381469727,45.95625305175781,-15.112500190734863
1697611001488694300,23.9616943359375,8.34375,45.9375,-16.125
1697611001508689000,23.98168896484375,7.950000286102295,46.03125,-15.225000381469727
1697611001528680000,24.001679931640624,8.043750762939453,45.9375,-15.825000762939453
1697611001548689200,24.021689208984377,8.15625,45.67500305175781,-15.937500953674316
1697611001568690400,24.0416904296875,7.612500190734863,46.181251525878906,-16.631250381469727
1697611001588698400,24.061698486328126,7.518750190734863,45.993751525878906,-16.631250381469727
1697611001608681500,24.081681396484374,7.218750476837158,45.73125076293945,-16.443750381469727
1697611001628675000,24.101675048828124,6.675000190734863,45.806251525878906,-16.96875
1697611001648666400,24.121666259765625,6.881250381469727,46.087501525878906,-17.043750762939453
1697611001668671700,24.141671630859374,6.168750286102295,45.73125076293945,-16.575000762939453
1697611001688668200,24.161668212890625,6.168750286102295,45.900001525878906,-16.762500762939453
1697611001708680400,24.181680419921875,5.231250286102295,46.35000228881836,-16.462501525878906
1697611001728685800,24.201685791015624,5.737500190734863,46.06875228881836,-17.26875114440918
1697611001748697000,24.221697021484374,6.262500286102295,45.97500228881836,-17.26875114440918
1697611001768690200,24.241690185546876,6.056250095367432,46.14375305175781,-17.45625114440918
1697611001788691500,24.26169140625,5.737500190734863,46.06875228881836,-17.36250114440918
1697611001808688000,24.281688232421875,5.325000286102295,46.48125076293945,-17.868751525878906
1697611001828692500,24.3016923828125,5.118750095367432,46.23750305175781,-17.26875114440918
1697611001848692000,24.32169189453125,4.912500381469727,46.14375305175781,-17.475000381469727
1697611001868680200,24.34168017578125,5.006250381469727,46.06875228881836,-17.587501525878906
1697611001888685300,24.361685302734376,4.59375,46.66875076293945,-18.075000762939453
1697611001908678700,24.3816787109375,4.800000190734863,46.40625,-17.981250762939453
1697611001928676600,24.401676513671877,4.6875,46.48125076293945,-18.075000762939453
1697611001948674600,24.421674560546876,4.368750095367432,46.38750076293945,-18.39375114440918
1697611001968669700,24.441669677734374,3.9562501907348633,46.48125076293945,-18.1875
1697611001988684500,24.4616845703125,3.750000238418579,46.21875,-18.30000114440918
1697611002008670000,24.481669921875,4.275000095367432,46.837501525878906,-18.375
1697611002028672800,24.5016728515625,3.7687501907348633,46.40625,-17.887500762939453
1697611002048682500,24.5216826171875,3.3375000953674316,46.462501525878906,-18.39375114440918
1697611002068685800,24.541685791015624,3.750000238418579,46.29375076293945,-18.20625114440918
1697611002088695600,24.561695556640625,3.7687501907348633,46.91250228881836,-18.075000762939453
1697611002108694800,24.58169482421875,3.7687501907348633,46.837501525878906,-18.075000762939453
1697611002128693500,24.601693603515624,4.59375,46.837501525878906,-18.075000762939453
1697611002148699400,24.621699462890625,3.8625001907348633,46.48125076293945,-18.09375
1697611002168700000,24.641699951171876,3.3375000953674316,46.931251525878906,-17.981250762939453
1697611002188689400,24.661689453125,3.9750001430511475,47.118751525878906,-17.775001525878906
1697611002208679700,24.6816796875,3.7687501907348633,46.931251525878906,-17.775001525878906
1697611002228683500,24.70168359375,4.387500286102295,46.76250076293945,-17.868751525878906
1697611002248693800,24.72169384765625,3.9750001430511475,46.3125,-17.793750762939453
1697611002268690200,24.741690185546876,3.543750047683716,46.743751525878906,-17.981250762939453
1697611002288684000,24.76168408203125,3.8625001907348633,46.76250076293945,-17.17500114440918
1697611002308694000,24.781694091796876,3.9750001430511475,47.118751525878906,-17.26875114440918
1697611002328689200,24.801689208984374,3.6750001907348633,47.04375076293945,-16.96875
1697611002348681500,24.821681396484376,2.9437501430511475,47.212501525878906,-16.762500762939453
1697611002368679000,24.841678955078127,0.9750000238418579,47.587501525878906,-16.387500762939453
1697611002388684500,24.8616845703125,2.6437501907348633,47.32500076293945,-16.462501525878906
1697611002408684800,24.881684814453124,0.35625001788139343,47.13750076293945,-16.21875
1697611002428692200,24.901692138671876,2.7375001907348633,47.13750076293945,-16.368751525878906
1697611002448694000,24.921694091796876,3.375000238418579,46.96875,-16.368751525878906
1697611002468691000,24.94169091796875,2.7562501430511475,47.15625,-16.068750381469727
1697611002488695800,24.96169580078125,3.7875001430511475,47.15625,-15.956250190734863
1697611002508688000,24.98168798828125,3.0562500953674316,47.41875076293945,-16.256250381469727
1697611002528677400,25.001677490234375,3.375000238418579,46.78125,-16.275001525878906
1697611002548691700,25.021691650390625,3.8812501430511475,46.875,-16.462501525878906
1697611002568680400,25.041680419921875,3.9937500953674316,47.32500076293945,-16.14375114440918
1697611002588690400,25.0616904296875,3.0562500953674316,46.53750228881836,-16.181251525878906
1697611002608675000,25.081675048828124,3.8812501430511475,46.70625305175781,-16.275001525878906
1697611002628672300,25.10167236328125,2.8687500953674316,47.17500305175781,-15.05625057220459
1697611002648680200,25.12168017578125,4.3125,46.70625305175781,-15.956250190734863
1697611002668678400,25.141678466796876,3.0562500953674316,46.89375305175781,-15.975000381469727
1697611002688680400,25.161680419921876,5.043750286102295,46.275001525878906,-15.562500953674316
1697611002708670200,25.181670166015625,4.518750190734863,46.44375228881836,-15.768750190734863
1697611002728677000,25.201677001953126,4.837500095367432,46.462501525878906,-15.24375057220459
1697611002748690200,25.221690185546876,4.631250381469727,46.462501525878906,-15.468750953674316
1697611002768696000,25.241696044921873,5.25,46.20000076293945,-15.24375057220459
1697611002788696300,25.2616962890625,5.475000381469727,46.743751525878906,-14.625000953674316
1697611002808692000,25.28169189453125,5.681250095367432,46.85625076293945,-14.11875057220459
1697611002828695300,25.3016953125,5.681250095367432,46.78125,-13.612500190734863
1697611002848688600,25.321688720703126,5.175000190734863,47.493751525878906,-13.293750762939453
1697611002868686600,25.3416865234375,3.7125000953674316,47.118751525878906,-13.93125057220459
1697611002888690400,25.3616904296875,5.193750381469727,47.41875076293945,-12.693750381469727
1697611002908699100,25.38169921875,3.731250047683716,47.306251525878906,-13.237500190734863
1697611002928684300,25.401684326171875,5.8125,47.15625,-12.90000057220459
1697611002948680000,25.421679931640625,5.100000381469727,47.79375076293945,-12.075000762939453
1697611002968673300,25.44167333984375,6.112500190734863,47.41875076293945,-12.99375057220459
1697611002988665600,25.46166552734375,6.731250286102295,47.41875076293945,-13.27500057220459
1697611003008653800,25.48165380859375,6.956250190734863,47.51250076293945,-12.975000381469727
1697611003028660500,25.501660400390627,7.368750095367432,47.60625076293945,-12.768750190734863
1697611003048673500,25.521673583984374,7.706250190734863,47.88750076293945,-12.131250381469727
1697611003068679700,25.5416796875,6.656250476837158,47.962501525878906,-12.468750953674316
1697611003088691700,25.561691650390625,6.131250381469727,47.775001525878906,-12.675000190734863
1697611003108689000,25.58168896484375,6.337500095367432,48.13125228881836,-12.356250762939453
1697611003128690000,25.60168994140625,6.225000381469727,47.41875076293945,-13.293750762939453
1697611003148697300,25.621697265625,6.843750476837158,47.400001525878906,-13.781250953674316
1697611003168699000,25.641698974609376,6.525000095367432,47.47500228881836,-13.987500190734863
1697611003188689200,25.661689208984374,8.081250190734863,47.493751525878906,-13.968750953674316
1697611003208704000,25.6817041015625,8.8125,46.78125,-13.762500762939453
1697611003228691200,25.701691162109373,8.90625,46.875,-14.175000190734863
1697611003248699400,25.721699462890626,10.256250381469727,46.875,-13.856250762939453
1697611003268694000,25.741694091796877,9.43125057220459,47.0625,-13.668750762939453
1697611003288689400,25.761689453125,9.731250762939453,47.13750076293945,-14.456250190734863
1697611003308691000,25.78169091796875,10.481250762939453,46.98750305175781,-13.031250953674316
1697611003328676000,25.801676025390623,10.27500057220459,47.0625,-13.631250381469727
1697611003348677400,25.821677490234375,9.65625,47.08125305175781,-12.956250190734863
1697611003368675800,25.84167578125,9.543750762939453,46.78125,-13.856250762939453
1697611003388682500,25.8616826171875,9.33750057220459,47.23125076293945,-13.74375057220459
1697611003408683300,25.881683349609375,9.52500057220459,46.78125,-14.268750190734863
1697611003428691500,25.90169140625,10.46250057220459,46.78125,-13.950000762939453
1697611003448693500,25.921693603515624,10.875,46.96875,-14.137500762939453
1697611003468691200,25.941691162109375,10.78125,46.42500305175781,-14.268750190734863
1697611003488696000,25.961696044921876,10.987500190734863,46.70625305175781,-14.156250953674316
1697611003508692200,25.981692138671875,10.46250057220459,46.59375,-14.456250190734863
1697611003528681200,26.00168115234375,11.081250190734863,46.875,-14.550000190734863
1697611003548687600,26.0216875,9.84375,46.6875,-14.362500190734863
1697611003568688600,26.041688720703124,10.256250381469727,46.76250076293945,-14.568750381469727
1697611003588689700,26.061689697265624,8.90625,47.212501525878906,-14.568750381469727
1697611003608675000,26.081675048828124,9.52500057220459,47.38125228881836,-14.456250190734863
1697611003628670200,26.101670166015627,9.018750190734863,47.66250228881836,-14.550000190734863
1697611003648664600,26.12166455078125,8.90625,46.76250076293945,-14.475000381469727
1697611003668666000,26.141666015625,8.193750381469727,47.66250228881836,-13.762500762939453
1697611003688671200,26.161671142578125,9.33750057220459,47.493751525878906,-14.250000953674316
1697611003708671700,26.181671630859373,9.112500190734863,47.306251525878906,-14.268750190734863
1697611003728679200,26.20167919921875,8.49375057220459,47.493751525878906,-13.668750762939453
1697611003748692200,26.221692138671877,8.8125,47.41875076293945,-13.856250762939453
1697611003768686800,26.241686767578123,9.65625,47.23125076293945,-13.443750381469727
1697611003788689400,26.261689453125,7.987500190734863,47.493751525878906,-13.875000953674316
1697611003808687000,26.28168701171875,7.462500095367432,48.03750228881836,-13.350000381469727
1697611003828692200,26.301692138671875,6.337500095367432,47.962501525878906,-12.562500953674316
1697611003848686000,26.32168603515625,7.893750190734863,48.41250228881836,-12.43125057220459
1697611003868690200,26.341690185546874,6.675000190734863,48.86250305175781,-11.625
1697611003888682200,26.36168212890625,7.706250190734863,48.243751525878906,-11.737500190734863
1697611003908675600,26.381675537109373,7.500000476837158,48.431251525878906,-11.625
1697611003928667000,26.4016669921875,7.706250190734863,48.525001525878906,-11.21250057220459
1697611003948667400,26.42166748046875,6.975000381469727,48.431251525878906,-11.325000762939453
1697611003968673000,26.441673095703123,7.612500190734863,48.54375076293945,-11.02500057220459
1697611003988679400,26.461679443359376,7.181250095367432,48.431251525878906,-11.325000762939453
1697611004008673300,26.48167333984375,7.406250476837158,48.431251525878906,-11.4375
1697611004028686800,26.501686767578125,7.818750381469727,48.26250076293945,-11.625
1697611004048693500,26.521693603515626,7.406250476837158,48.35625076293945,-11.4375
