time,seconds_elapsed,z,y,x
1694674020656083200,0.093083251953125,-50.812503814697266,-4.818750381469727,-13.08750057220459
1694674020676088000,0.113088134765625,-50.212501525878906,-5.381250381469727,-14.081250190734863
1694674020696100000,0.13310009765625,-49.89375305175781,-5.831250190734863,-14.49375057220459
1694674020716124000,0.1531240234375,-50.437503814697266,-5.325000286102295,-15.61875057220459
1694674020736148500,0.1731484375,-50.343753814697266,-6.825000286102295,-15.543750762939453
1694674020756178000,0.193177978515625,-50.343753814697266,-7.556250095367432,-15.862500190734863
1694674020776212200,0.213212158203125,-49.10625076293945,-8.231250762939453,-15.468750953674316
1694674020796224300,0.233224365234375,-49.63125228881836,-8.456250190734863,-16.387500762939453
1694674020816238800,0.25323876953125,-48.91875076293945,-7.668750286102295,-17.17500114440918
1694674020836243000,0.273242919921875,-48.525001525878906,-8.40000057220459,-18.28125
1694674020856250600,0.293250732421875,-47.70000076293945,-8.0625,-19.387500762939453
1694674020876250600,0.313250732421875,-47.19375228881836,-8.081250190734863,-19.875
1694674020896244700,0.33324462890625,-47.625,-8.456250190734863,-20.90625
1694674020916245500,0.35324560546875,-47.92500305175781,-7.668750286102295,-20.587501525878906
1694674020936241400,0.373241455078125,-47.71875,-7.293750286102295,-20.568750381469727
1694674020956244500,0.393244384765625,-48.337501525878906,-6.412500381469727,-20.55000114440918
1694674020976235300,0.4132353515625,-48.843753814697266,-6.506250381469727,-20.568750381469727
1694674020996231000,0.43323095703125,-48.431251525878906,-5.793750286102295,-20.325000762939453
1694674021016234500,0.453234375,-48.01875305175781,-5.4375,-20.625
1694674021036233500,0.4732333984375,-47.8125,-5.456250190734863,-21.431251525878906
1694674021056232000,0.49323193359375,-47.51250076293945,-4.3125,-21.993751525878906
1694674021076226600,0.5132265625,-47.83125305175781,-4.331250190734863,-22.5
1694674021096234200,0.533234130859375,-47.306251525878906,-3.8062500953674316,-22.481250762939453
1694674021116231700,0.553231689453125,-47.306251525878906,-3.7125000953674316,-22.6875
1694674021136221700,0.5732216796875,-47.306251525878906,-2.4750001430511475,-22.556251525878906
1694674021156221200,0.59322119140625,-47.306251525878906,-2.5687501430511475,-22.743751525878906
1694674021176217000,0.613217041015625,-47.41875076293945,-2.325000047683716,-23.45625114440918
1694674021196221700,0.6332216796875,-47.00625228881836,-1.256250023841858,-23.306251525878906
1694674021216221400,0.653221435546875,-47.32500076293945,-1.162500023841858,-23.92500114440918
1694674021236217000,0.673217041015625,-47.00625228881836,-0.01875000074505806,-23.681251525878906
1694674021256221400,0.693221435546875,-47.00625228881836,-0.375,-23.887500762939453
1694674021276232000,0.71323193359375,-46.6875,0.3375000059604645,-23.868751525878906
1694674021296236000,0.733236083984375,-47.306251525878906,0.8437500596046448,-24.262500762939453
1694674021316238800,0.75323876953125,-46.57500076293945,2.0812501907348633,-24.525001525878906
1694674021336233000,0.77323291015625,-46.89375305175781,2.4375,-24.712501525878906
1694674021356235000,0.793235107421875,-46.59375,2.8687500953674316,-25.218751907348633
1694674021376243700,0.81324365234375,-45.95625305175781,4.481250286102295,-24.750001907348633
1694674021396227300,0.833227294921875,-46.89375305175781,4.706250190734863,-25.875001907348633
1694674021416221400,0.853221435546875,-45.65625,5.268750190734863,-25.631250381469727
1694674021436213200,0.873213134765625,-45.75,4.818750381469727,-25.650001525878906
1694674021456214500,0.893214599609375,-45.431251525878906,4.818750381469727,-25.837501525878906
1694674021476219400,0.913219482421875,-45.26250076293945,5.137500286102295,-27.243751525878906
1694674021496219400,0.933219482421875,-44.75625228881836,5.362500190734863,-28.856250762939453
1694674021516226600,0.9532265625,-41.775001525878906,6.637500286102295,-31.481250762939453
1694674021536228400,0.973228271484375,-39.11250305175781,7.293750286102295,-33.95625305175781
1694674021556236800,0.99323681640625,-34.66875076293945,10.162500381469727,-37.14375305175781
1694674021576238800,1.01323876953125,-31.875001907348633,12.71250057220459,-38.75625228881836
1694674021596236300,1.033236328125,-28.631250381469727,17.850000381469727,-39.16875076293945
1694674021616241200,1.0532412109375,-26.962501525878906,21.48750114440918,-39.54375076293945
1694674021636232700,1.073232666015625,-24.86250114440918,25.23750114440918,-39.30000305175781
1694674021656225500,1.0932255859375,-22.087501525878906,30.281251907348633,-36.48750305175781
1694674021676231700,1.113231689453125,-21.01875114440918,33.31875228881836,-35.587501525878906
1694674021696232400,1.133232421875,-20.137500762939453,36.76875305175781,-32.75625228881836
1694674021716240400,1.153240478515625,-19.78125,39.03750228881836,-31.162500381469727
1694674021736225300,1.173225341796875,-17.943750381469727,40.72500228881836,-27.468751907348633
1694674021756219600,1.1932197265625,-18.543750762939453,41.90625,-26.025001525878906
1694674021776213800,1.2132138671875,-18.09375,42.50625228881836,-23.775001525878906
1694674021796203000,1.233203125,-17.887500762939453,43.05000305175781,-23.25
1694674021816209400,1.25320947265625,-18.39375114440918,44.025001525878906,-23.137500762939453
1694674021836210700,1.273210693359375,-15.581250190734863,44.13750076293945,-22.78125
1694674021856219400,1.293219482421875,-14.86875057220459,45.01875305175781,-23.25
1694674021876222000,1.313221923828125,-13.593750953674316,45.39375305175781,-22.725000381469727
1694674021896220200,1.33322021484375,-12.131250381469727,46.10625076293945,-22.275001525878906
1694674021916225500,1.3532255859375,-10.237500190734863,47.04375076293945,-21.01875114440918
1694674021936225800,1.373225830078125,-9.600000381469727,47.94375228881836,-20.26875114440918
1694674021956233000,1.39323291015625,-9.99375057220459,48.41250228881836,-19.443750381469727
1694674021976230000,1.41322998046875,-11.006250381469727,49.44375228881836,-17.212501525878906
1694674021996227600,1.4332275390625,-11.081250190734863,49.63125228881836,-16.3125
1694674022016233000,1.45323291015625,-12.52500057220459,49.593753814697266,-14.512500762939453
1694674022036233200,1.473233154296875,-12.90000057220459,51.056251525878906,-12.768750190734863
1694674022056233000,1.49323291015625,-12.225000381469727,51.58125305175781,-9.318750381469727
1694674022076228400,1.513228271484375,-12.71250057220459,51.993751525878906,-6.881250381469727
1694674022096232000,1.53323193359375,-12.693750381469727,52.462501525878906,-6.168750286102295
1694674022116230100,1.553230224609375,-12.656250953674316,51.97500228881836,-3.843750238418579
1694674022136221000,1.573220947265625,-12.356250762939453,52.968753814697266,-3.918750047683716
1694674022156221000,1.593220947265625,-10.893750190734863,52.593753814697266,-4.40625
1694674022176228600,1.613228515625,-10.725000381469727,52.29375076293945,-5.925000190734863
1694674022196219400,1.633219482421875,-10.012500762939453,51.562503814697266,-6.956250190734863
1694674022216230400,1.65323046875,-9.168750762939453,51.750003814697266,-6.731250286102295
1694674022236235300,1.6732353515625,-7.593750476837158,52.125003814697266,-5.887500286102295
1694674022256234800,1.69323486328125,-6.843750476837158,52.81875228881836,-3.637500047683716
1694674022276241400,1.713241455078125,-7.031250476837158,53.08125305175781,-3.637500047683716
1694674022296242200,1.7332421875,-7.237500190734863,52.406253814697266,-2.25
1694674022316242700,1.75324267578125,-7.537500381469727,53.13750076293945,-1.21875
1694674022336234800,1.77323486328125,-8.662500381469727,51.993751525878906,-0.26250001788139343
1694674022356235500,1.793235595703125,-7.931250095367432,52.53750228881836,-0.03750000149011612
1694674022376243500,1.813243408203125,-7.406250476837158,52.368751525878906,-0.3375000059604645
1694674022396227000,1.83322705078125,-7.293750286102295,52.368751525878906,-0.03750000149011612
1694674022416220700,1.853220703125,-7.612500190734863,52.70625305175781,-0.3375000059604645
1694674022436212200,1.873212158203125,-5.831250190734863,52.76250076293945,1.1062500476837158
1694674022456213200,1.893213134765625,-5.606250286102295,53.400001525878906,2.0250000953674316
1694674022476218000,1.913218017578125,-5.006250381469727,52.85625076293945,1.0125000476837158
1694674022496218000,1.933218017578125,-5.418750286102295,52.837501525878906,0.39375001192092896
1694674022516225800,1.953225830078125,-5.34375,52.61250305175781,-0.9000000357627869
1694674022536227600,1.9732275390625,-5.118750095367432,52.38750076293945,0.1875
1694674022556225000,1.99322509765625,-5.325000286102295,52.91250228881836,0.5062500238418579
1694674022576230000,2.01322998046875,-6.675000190734863,51.937503814697266,0.65625
1694674022596229600,2.033229736328125,-7.087500095367432,52.125003814697266,0.65625
1694674022616236500,2.053236572265625,-7.181250095367432,51.50625228881836,0.956250011920929
1694674022636230100,2.073230224609375,-6.656250476837158,52.05000305175781,1.162500023841858
1694674022656241400,2.093241455078125,-5.831250190734863,52.23750305175781,1.2937500476837158
1694674022676244700,2.11324462890625,-5.081250190734863,52.968753814697266,2.231250047683716
1694674022696242700,2.13324267578125,-5.831250190734863,52.593753814697266,1.40625
1694674022716252200,2.153252197265625,-5.100000381469727,52.500003814697266,1.40625
1694674022736232000,2.17323193359375,-4.368750095367432,52.593753814697266,1.8375000953674316
1694674022756222700,2.19322265625,-4.050000190734863,51.900001525878906,2.1187500953674316
1694674022776214500,2.213214599609375,-4.668750286102295,52.42500305175781,2.1187500953674316
1694674022796216800,2.233216796875,-4.6875,52.16250228881836,2.1187500953674316
1694674022816219400,2.253219482421875,-4.256250381469727,52.35000228881836,2.1187500953674316
1694674022836222000,2.273221923828125,-4.875,51.91875076293945,2.512500047683716
1694674022856226800,2.293226806640625,-5.306250095367432,52.593753814697266,1.818750023841858
1694674022876238000,2.313238037109375,-5.493750095367432,52.70625305175781,2.325000047683716
1694674022896231200,2.333231201171875,-5.625,52.42500305175781,1.7062500715255737
1694674022916233000,2.35323291015625,-5.193750381469727,52.687503814697266,1.5187500715255737
1694674022936230100,2.373230224609375,-5.006250381469727,52.14375305175781,1.40625
1694674022956235000,2.393235107421875,-4.893750190734863,52.931251525878906,0.7125000357627869
1694674022976227300,2.413227294921875,-4.481250286102295,52.14375305175781,1.1062500476837158
1694674022996231700,2.433231689453125,-4.481250286102295,52.57500076293945,0.9187500476837158
1694674023016235500,2.453235595703125,-4.387500286102295,52.66875076293945,0.8250000476837158
1694674023036234200,2.473234130859375,-5.4375,52.125003814697266,0.48750001192092896
1694674023056235500,2.493235595703125,-5.212500095367432,52.462501525878906,0.30000001192092896
1694674023076232000,2.51323193359375,-5.212500095367432,52.29375076293945,0.28125
1694674023096234200,2.533234130859375,-5.4375,52.462501525878906,0.1875
1694674023116232200,2.553232177734375,-6.468750476837158,52.29375076293945,0.48750001192092896
1694674023136222000,2.573221923828125,-6.375000476837158,52.29375076293945,0.16875000298023224
1694674023156232700,2.593232666015625,-7.087500095367432,52.556251525878906,0.26250001788139343
1694674023176237300,2.6132373046875,-6.881250381469727,52.01250076293945,-0.24375000596046448
1694674023196225500,2.6332255859375,-6.468750476837158,52.556251525878906,0.07500000298023224
1694674023216234500,2.653234375,-6.468750476837158,51.843753814697266,0.26250001788139343
1694674023236226300,2.673226318359375,-7.087500095367432,52.38750076293945,0.26250001788139343
1694674023256227300,2.693227294921875,-6.993750095367432,51.76875305175781,0.45000001788139343
1694674023276224300,2.713224365234375,-7.500000476837158,51.95625305175781,0.956250011920929
1694674023296229000,2.73322900390625,-7.087500095367432,51.60000228881836,1.1437500715255737
1694674023316232400,2.753232421875,-7.181250095367432,52.218753814697266,1.162500023841858
1694674023336227800,2.773227783203125,-7.181250095367432,52.06875228881836,1.6687500476837158
1694674023356231000,2.79323095703125,-7.912500381469727,51.86250305175781,1.443750023841858
1694674023376222700,2.81322265625,-8.006250381469727,52.05000305175781,1.6687500476837158
1694674023396211500,2.83321142578125,-7.481250286102295,51.54375076293945,2.4562501907348633
1694674023416211000,2.8532109375,-7.687500476837158,52.25625228881836,2.3625001907348633
1694674023436211200,2.873211181640625,-8.081250190734863,52.01250076293945,3.375000238418579
1694674023456213800,2.8932138671875,-8.71875,51.91875076293945,3.168750047683716
1694674023476219600,2.9132197265625,-8.287500381469727,52.10625076293945,3.562500238418579
1694674023496220400,2.933220458984375,-9.318750381469727,51.76875305175781,4.256250381469727
1694674023516228000,2.95322802734375,-9.412500381469727,51.937503814697266,4.556250095367432
1694674023536230000,2.97322998046875,-10.143750190734863,51.78750228881836,5.15625
1694674023556238000,2.993238037109375,-10.55625057220459,51.86250305175781,5.550000190734863
1694674023576240000,3.013240234375,-11.475000381469727,51.16875076293945,6.112500190734863
1694674023596237300,3.0332373046875,-11.981250762939453,51.375003814697266,6.937500476837158
1694674023616242000,3.053241943359375,-12.825000762939453,51.281253814697266,7.125000476837158
1694674023636241200,3.0732412109375,-12.918750762939453,51.03750228881836,7.706250190734863
1694674023656232200,3.093232177734375,-14.568750381469727,51.562503814697266,8.11875057220459
1694674023676236300,3.113236328125,-14.568750381469727,50.681251525878906,8.68125057220459
1694674023696235800,3.13323583984375,-14.250000953674316,50.681251525878906,8.68125057220459
1694674023716223500,3.153223388671875,-14.250000953674316,50.51250076293945,8.68125057220459
1694674023736210200,3.173210205078125,-14.343750953674316,50.88750076293945,9.300000190734863
1694674023756207600,3.19320751953125,-14.043750762939453,50.868751525878906,8.793750762939453
1694674023776213200,3.213213134765625,-12.375000953674316,50.88750076293945,8.737500190734863
1694674023796202800,3.23320263671875,-11.4375,51.67500305175781,8.456250190734863
1694674023816221000,3.253220947265625,-9.787500381469727,51.22500228881836,7.856250286102295
1694674023836220200,3.27322021484375,-8.77500057220459,51.468753814697266,6.881250381469727
1694674023856226600,3.2932265625,-7.631250381469727,51.618751525878906,5.681250095367432
1694674023876238800,3.31323876953125,-7.650000095367432,52.218753814697266,4.59375
1694674023896232400,3.333232421875,-6.843750476837158,51.656253814697266,3.4875001907348633
1694674023916234200,3.353234130859375,-5.081250190734863,51.91875076293945,2.606250047683716
1694674023936231400,3.3732314453125,-5.193750381469727,51.900001525878906,2.0062501430511475
1694674023956236000,3.393236083984375,-4.800000190734863,51.86250305175781,0.48750001192092896
1694674023976228900,3.413228759765625,-4.181250095367432,52.38750076293945,0.01875000074505806
1694674023996233000,3.43323291015625,-3.356250047683716,51.750003814697266,-0.48750001192092896
1694674024016236500,3.453236572265625,-3.168750047683716,51.91875076293945,-1.0875000953674316
1694674024036227300,3.473227294921875,-1.6125000715255737,51.20625305175781,-1.4812500476837158
1694674024056227300,3.493227294921875,-0.5625,51.30000305175781,-1.3875000476837158
1694674024076223700,3.5132236328125,0.768750011920929,51.73125076293945,-2.15625
1694674024096225300,3.533225341796875,1.4812500476837158,51.45000076293945,-2.6437501907348633
1694674024116228400,3.553228271484375,2.8125,51.525001525878906,-3.843750238418579
1694674024136219600,3.5732197265625,3.731250047683716,50.79375076293945,-4.668750286102295
1694674024156231700,3.593231689453125,4.443750381469727,51.01875305175781,-6.262500286102295
1694674024176237000,3.613237060546875,6.393750190734863,49.76250076293945,-7.275000095367432
1694674024196225800,3.633225830078125,7.725000381469727,49.81875228881836,-8.77500057220459
1694674024216235000,3.653235107421875,9.787500381469727,49.81875228881836,-9.43125057220459
1694674024236227000,3.67322705078125,11.006250381469727,48.54375076293945,-10.668750762939453
1694674024256228000,3.69322802734375,13.18125057220459,48.187503814697266,-11.362500190734863
1694674024276236000,3.713236083984375,14.193750381469727,46.837501525878906,-12.093750953674316
1694674024296238000,3.733238037109375,16.368751525878906,46.462501525878906,-12.881250381469727
1694674024316229000,3.75322900390625,18.01875114440918,44.868751525878906,-13.500000953674316
1694674024336235800,3.77323583984375,18.84375,44.0625,-13.518750190734863
1694674024356237000,3.793237060546875,20.493751525878906,42.993751525878906,-14.231250762939453
1694674024376234000,3.81323388671875,21.11250114440918,42.46875,-14.437500953674316
1694674024396219600,3.8332197265625,21.618751525878906,42,-15.05625057220459
1694674024416216600,3.853216552734375,20.756250381469727,41.868751525878906,-16.78125
1694674024436211200,3.873211181640625,21.375,41.75625228881836,-17.475000381469727
1694674024456213800,3.8932138671875,21.375,41.13750076293945,-17.606250762939453
1694674024476219100,3.91321923828125,20.212501525878906,41.38125228881836,-18.412500381469727
1694674024496219400,3.933219482421875,19.275001525878906,41.53125,-18.9375
1694674024516227000,3.95322705078125,18.731250762939453,41.70000076293945,-19.631250381469727
1694674024536228900,3.973228759765625,18.9375,42.03750228881836,-20.325000762939453
1694674024556237300,3.9932373046875,17.587501525878906,42.65625,-20.53125
1694674024576239600,4.013239501953125,17.887500762939453,42.1875,-21.056251525878906
1694674024596236800,4.03323681640625,17.793750762939453,41.75625228881836,-20.962501525878906
1694674024616241400,4.053241455078125,18.525001525878906,41.66250228881836,-20.850000381469727
1694674024636233500,4.0732333984375,19.650001525878906,40.95000076293945,-21.356250762939453
1694674024656235000,4.093235107421875,19.3125,40.48125076293945,-22.387500762939453
1694674024676239000,4.113239013671875,20.662500381469727,40.29375076293945,-22.575000762939453
1694674024696230100,4.133230224609375,21.58125114440918,39.056251525878906,-22.80000114440918
1694674024716220400,4.153220458984375,22.537500381469727,38.53125,-22.89375114440918
1694674024736208000,4.173207763671875,23.36250114440918,37.48125076293945,-22.42500114440918
1694674024756205600,4.19320556640625,23.45625114440918,36.75,-23.34375
1694674024776211700,4.213211669921875,24.056251525878906,36.11250305175781,-23.756250381469727
1694674024796201700,4.23320166015625,24.67500114440918,35.13750076293945,-23.775001525878906
1694674024816220400,4.253220458984375,25.181251525878906,33.88125228881836,-24.20625114440918
1694674024836231000,4.27323095703125,24.86250114440918,33.525001525878906,-24.731250762939453
1694674024856235300,4.2932353515625,25.068750381469727,32.88750076293945,-25.443750381469727
1694674024876245200,4.313245361328125,24.843751907348633,31.818750381469727,-25.575000762939453
1694674024896237000,4.333237060546875,24.731250762939453,31.275001525878906,-25.89375114440918
1694674024916237300,4.3532373046875,24.918750762939453,29.756250381469727,-26.55000114440918
1694674024936244500,4.373244384765625,24.825000762939453,29.493751525878906,-26.45625114440918
1694674024956245800,4.393245849609375,24.39375114440918,29.118751525878906,-27.187501907348633
1694674024976235000,4.413235107421875,24.39375114440918,28.33125114440918,-26.606250762939453
1694674024996236500,4.433236572265625,24.075000762939453,28.406251907348633,-27.412500381469727
1694674025016238300,4.45323828125,22.912500381469727,27.58125114440918,-27.656251907348633
1694674025036235800,4.47323583984375,23.45625114440918,27.95625114440918,-27.225000381469727
1694674025056233000,4.49323291015625,22.40625,27.506250381469727,-27.656251907348633
1694674025076226800,4.513226806640625,21.975000381469727,27.39375114440918,-27.86250114440918
1694674025096229400,4.5332294921875,21.150001525878906,27.318750381469727,-27.58125114440918
1694674025116230700,4.553230712890625,20.83125114440918,27.48750114440918,-27.975000381469727
1694674025136220700,4.573220703125,21.356250762939453,27.750001907348633,-27.86250114440918
1694674025156231700,4.593231689453125,20.64375114440918,27.67500114440918,-27.375001907348633
1694674025176236500,4.613236572265625,20.325000762939453,28.556251525878906,-27.562501907348633
1694674025196224800,4.633224853515625,19.70625114440918,28.837501525878906,-27.243751525878906
1694674025216234200,4.653234130859375,18.787500381469727,29.006250381469727,-26.962501525878906
1694674025236237800,4.67323779296875,17.73750114440918,29.531251907348633,-27.056251525878906
1694674025256236300,4.693236328125,17.962501525878906,29.812501907348633,-26.343751907348633
1694674025276230700,4.713230712890625,16.931251525878906,30.356250762939453,-26.137500762939453
1694674025296233500,4.7332333984375,15.90000057220459,31.256250381469727,-25.631250381469727
1694674025316238000,4.753238037109375,16.012500762939453,31.781251907348633,-25.406251907348633
1694674025336242700,4.77324267578125,14.662500381469727,32.493751525878906,-24.993751525878906
1694674025356242200,4.7932421875,13.74375057220459,33.20625305175781,-24.693750381469727
1694674025376229600,4.813229736328125,12.61875057220459,33.75,-24.39375114440918
1694674025396216000,4.833216064453125,12.093750953674316,34.53750228881836,-24.48750114440918
1694674025416212500,4.85321240234375,11.0625,35.19375228881836,-23.15625
1694674025436206300,4.873206298828125,10.856250762939453,35.8125,-23.34375
1694674025456209400,4.89320947265625,9.731250762939453,36.525001525878906,-23.043750762939453
1694674025476215800,4.9132158203125,8.793750762939453,37.3125,-22.631250381469727
1694674025496217000,4.933217041015625,8.287500381469727,38.47500228881836,-22.40625
1694674025516225500,4.9532255859375,7.481250286102295,38.681251525878906,-21.20625114440918
1694674025536228000,4.97322802734375,6.956250190734863,39.20625305175781,-21.1875
1694674025556236800,4.99323681640625,6.131250381469727,40.368751525878906,-20.756250381469727
1694674025576239400,5.0132392578125,5.943750381469727,40.556251525878906,-20.662500381469727
1694674025596236800,5.03323681640625,5.325000286102295,41.4375,-20.4375
1694674025616230400,5.05323046875,4.612500190734863,41.64375305175781,-19.631250381469727
1694674025636224800,5.073224853515625,4.181250095367432,42.150001525878906,-20.231250762939453
1694674025656225800,5.093225830078125,3.356250047683716,42.525001525878906,-19.725000381469727
1694674025676232400,5.113232421875,2.8312501907348633,43.21875,-19.912500381469727
1694674025696233700,5.133233642578125,2.6437501907348633,43.14375305175781,-19.42500114440918
1694674025716222700,5.15322265625,2.53125,43.57500076293945,-19.912500381469727
1694674025736210400,5.17321044921875,1.818750023841858,43.91250228881836,-20.118751525878906
1694674025756208600,5.193208740234375,1.7062500715255737,43.931251525878906,-19.725000381469727
1694674025776214500,5.213214599609375,1.6125000715255737,44.45625305175781,-19.59375
1694674025796204300,5.233204345703125,1.2937500476837158,44.64375305175781,-19.5
1694674025816222200,5.25322216796875,1.2937500476837158,45,-19.59375
1694674025836232400,5.273232421875,0.675000011920929,44.64375305175781,-19.70625114440918
1694674025856236000,5.293236083984375,0.35625001788139343,44.90625,-19.912500381469727
1694674025876245800,5.313245849609375,0.675000011920929,44.64375305175781,-19.70625114440918
1694674025896237300,5.3332373046875,0.4687500298023224,44.90625,-19.70625114440918
1694674025916237000,5.353237060546875,0.862500011920929,45.16875076293945,-20.193750381469727
1694674025936233000,5.37323291015625,0.768750011920929,44.8125,-19.818750381469727
1694674025956236800,5.39323681640625,0.675000011920929,45.243751525878906,-20.100000381469727
1694674025976228600,5.413228515625,0.8812500238418579,44.8125,-20.006250381469727
1694674025996232400,5.433232421875,1.40625,45.431251525878906,-20.17500114440918
1694674026016235500,5.453235595703125,1.3875000476837158,44.8125,-20.100000381469727
1694674026036228900,5.473228759765625,1.1812500953674316,44.88750076293945,-20.306251525878906
1694674026056228400,5.493228271484375,1.5937501192092896,44.79375076293945,-20.493751525878906
1694674026076224000,5.51322412109375,1.5937501192092896,44.71875,-20.100000381469727
1694674026096224300,5.533224365234375,2.0250000953674316,45.337501525878906,-20.287500381469727
1694674026116226800,5.553226806640625,2.9437501430511475,44.53125,-20.793750762939453
1694674026136218600,5.573218505859375,2.8312501907348633,44.70000076293945,-20.887500762939453
1694674026156231000,5.59323095703125,3.6750001907348633,44.4375,-20.775001525878906
1694674026176236300,5.613236328125,2.7375001907348633,44.51250076293945,-21
1694674026196225300,5.633225341796875,3.2437500953674316,45.056251525878906,-21.28125
1694674026216234800,5.65323486328125,3.2437500953674316,43.89375305175781,-21.01875114440918
1694674026236226800,5.673226806640625,3.0375001430511475,44.0625,-21.506250381469727
1694674026256228000,5.69322802734375,2.8125,44.32500076293945,-21.618751525878906
1694674026276225000,5.71322509765625,3.543750047683716,44.23125076293945,-22.106250762939453
1694674026296229600,5.733229736328125,3.4312500953674316,43.51875305175781,-22.42500114440918
1694674026316222200,5.75322216796875,3.637500047683716,43.70625305175781,-22.3125
1694674026336231200,5.773231201171875,3.9562501907348633,43.16250228881836,-22.42500114440918
1694674026356234200,5.793234130859375,4.162500381469727,43.51875305175781,-22.61250114440918
1694674026376232200,5.813232177734375,4.368750095367432,43.25625228881836,-22.61250114440918
1694674026396219000,5.833218994140625,4.256250381469727,42.78750228881836,-23.137500762939453
1694674026416215600,5.853215576171875,4.256250381469727,43.3125,-23.53125
1694674026436237000,5.873237060546875,4.125,42.50625228881836,-24.168750762939453
1694674026456233500,5.8932333984375,4.556250095367432,42.67500305175781,-23.943750381469727
1694674026476234000,5.91323388671875,4.743750095367432,42.150001525878906,-24.056251525878906
1694674026496230000,5.93322998046875,4.950000286102295,42.03750228881836,-24.86250114440918
1694674026516233700,5.953233642578125,5.775000095367432,42.03750228881836,-24.86250114440918
1694674026536232700,5.973232666015625,5.568750381469727,41.32500076293945,-25.387500762939453
1694674026556238800,5.99323876953125,6.600000381469727,41.587501525878906,-25.256250381469727
1694674026576239600,6.013239501953125,7.218750476837158,40.51875305175781,-25.593751907348633
1694674026596236000,6.033236083984375,8.34375,40.25625228881836,-26.08125114440918
1694674026616240000,6.053240234375,8.456250190734863,39.97500228881836,-26.493751525878906
1694674026636232200,6.073232177734375,9.262500762939453,39.69375228881836,-27.093751907348633
1694674026656233500,6.0932333984375,10.200000762939453,38.98125076293945,-27.000001907348633
1694674026676237600,6.113237548828125,10.40625,38.4375,-27.825000762939453
1694674026696236800,6.13323681640625,11.231250762939453,38.10000228881836,-27.318750381469727
1694674026716224800,6.153224853515625,11.943750381469727,37.01250076293945,-28.23750114440918
1694674026736211000,6.1732109375,13.08750057220459,37.01250076293945,-28.33125114440918
1694674026756207900,6.193207763671875,13.706250190734863,36.31875228881836,-28.14375114440918
1694674026776213200,6.213213134765625,14.531250953674316,35.681251525878906,-28.650001525878906
1694674026796202800,6.23320263671875,16.387500762939453,34.81875228881836,-28.743751525878906
1694674026816221000,6.253220947265625,16.80000114440918,34.181251525878906,-28.762500762939453
1694674026836231400,6.2732314453125,17.64375114440918,34.462501525878906,-28.125001907348633
1694674026856235000,6.293235107421875,18.46875,32.962501525878906,-28.256250381469727
1694674026876244700,6.31324462890625,20.025001525878906,32.79375076293945,-27.937501907348633
1694674026896236500,6.333236572265625,20.662500381469727,32.025001525878906,-27.356250762939453
1694674026916237000,6.353237060546875,20.55000114440918,32.28750228881836,-27.656251907348633
1694674026936232700,6.373232666015625,21.1875,32.28750228881836,-27.131250381469727
1694674026956236800,6.39323681640625,21.1875,32.83125305175781,-26.812501907348633
1694674026976229600,6.413229736328125,21.825000762939453,32.92500305175781,-26.700000762939453
1694674026996233200,6.433233154296875,21.618751525878906,32.56875228881836,-26.718751907348633
1694674027016236500,6.453236572265625,21.09375,33.11250305175781,-26.006250381469727
1694674027036234800,6.47323486328125,21,33.48750305175781,-25.98750114440918
1694674027056233200,6.493233154296875,20.681251525878906,33.5625,-25.781251907348633
1694674027076227300,6.513227294921875,20.381250381469727,34.38750076293945,-25.368751525878906
1694674027096226300,6.533226318359375,19.875,34.72500228881836,-25.668750762939453
1694674027116227800,6.553227783203125,20.381250381469727,35.34375,-25.556251525878906
1694674027136219000,6.573218994140625,19.368751525878906,35.26875305175781,-24.76875114440918
1694674027156230700,6.593230712890625,19.575000762939453,35.71875,-24.937501907348633
1694674027176236000,6.613236083984375,18.01875114440918,36.41250228881836,-24.637500762939453
1694674027196224800,6.633224853515625,17.08125114440918,36.9375,-25.256250381469727
1694674027216234200,6.653234130859375,16.875,37.462501525878906,-25.031251907348633
1694674027236231200,6.673231201171875,16.14375114440918,37.462501525878906,-24.937501907348633
1694674027256231200,6.693231201171875,15.225000381469727,38.00625228881836,-24.843751907348633
1694674027276227000,6.71322705078125,14.793750762939453,38.53125,-25.031251907348633
1694674027296231200,6.733231201171875,14.175000190734863,38.70000076293945,-25.14375114440918
1694674027316234200,6.753234130859375,13.031250953674316,38.70000076293945,-24.843751907348633
1694674027336240000,6.773240234375,12.412500381469727,39.22500228881836,-25.256250381469727
1694674027356240600,6.79324072265625,10.125,39.75,-25.275001525878906
1694674027376229400,6.8132294921875,8.268750190734863,40.61250305175781,-25.575000762939453
1694674027396216000,6.833216064453125,7.218750476837158,41.32500076293945,-25.556251525878906
1694674027416213000,6.853212890625,5.962500095367432,41.75625228881836,-25.668750762939453
1694674027436207400,6.873207275390625,5.568750381469727,42.22500228881836,-24.95625114440918
1694674027456210400,6.89321044921875,4.556250095367432,42.337501525878906,-24.056251525878906
1694674027476216600,6.913216552734375,3.918750047683716,43.10625076293945,-24.543750762939453
1694674027496217900,6.9332177734375,2.5875000953674316,43.06875228881836,-22.856250762939453
1694674027516226000,6.95322607421875,1.6687500476837158,44.306251525878906,-22.725000381469727
1694674027536228400,6.973228271484375,1.3687500953674316,44.66250228881836,-22.012500762939453
1694674027556237000,6.993237060546875,1.068750023841858,44.681251525878906,-21.11250114440918
1694674027576239400,7.0132392578125,0.768750011920929,46.10625076293945,-21.1875
1694674027596236800,7.03323681640625,0.9937500357627869,45.97500228881836,-19.668750762939453
1694674027616230400,7.05323046875,2.043750047683716,46.33125305175781,-19.03125
1694674027636224800,7.073224853515625,2.2687501907348633,46.61250305175781,-18.618751525878906
1694674027656226300,7.093226318359375,2.3625001907348633,46.72500228881836,-18.01875114440918
1694674027676233000,7.11323291015625,1.6687500476837158,46.91250228881836,-17.118751525878906
1694674027696233700,7.133233642578125,1.4625000953674316,47.118751525878906,-16.70625114440918
1694674027716223700,7.1532236328125,0.9375000596046448,47.64375305175781,-16.293750762939453
1694674027736210700,7.173210693359375,0.6375000476837158,47.73750305175781,-16.181251525878906
1694674027756208600,7.193208740234375,0.01875000074505806,47.56875228881836,-16.21875
1694674027776219100,7.21321923828125,-0.9187500476837158,47.56875228881836,-15.71250057220459
1694674027796208600,7.233208740234375,-1.21875,48.093753814697266,-15.80625057220459
1694674027816225300,7.253225341796875,-1.0125000476837158,48.093753814697266,-15.600000381469727
1694674027836223200,7.27322314453125,-1.1062500476837158,48.187503814697266,-15.693750381469727
1694674027856228900,7.293228759765625,-0.9000000357627869,47.66250228881836,-15.412500381469727
1694674027876240100,7.313240234375,-0.375,48.11250305175781,-15.487500190734863
1694674027896233200,7.333233154296875,-0.48750001192092896,48.26250076293945,-15.99375057220459
1694674027916234500,7.353234375,0.11250000447034836,47.56875228881836,-15.90000057220459
1694674027936231200,7.373231201171875,0.11250000447034836,48.093753814697266,-16.087501525878906
1694674027956235800,7.39323583984375,0.8437500596046448,47.66250228881836,-15.693750381469727
1694674027976228600,7.413228515625,0.11250000447034836,47.47500228881836,-16.21875
1694674027996234800,7.43323486328125,0.4125000238418579,47.73750305175781,-16.59375
1694674028016237800,7.45323779296875,0.3187500238418579,47.10000228881836,-16.818750381469727
1694674028036228400,7.473228271484375,0.3187500238418579,47.53125,-17.212501525878906
1694674028056228900,7.493228759765625,0.7125000357627869,46.72500228881836,-17.625
1694674028076224300,7.513224365234375,1.03125,46.72500228881836,-17.53125
1694674028096221700,7.5332216796875,0.8062500357627869,46.368751525878906,-18.056251525878906
1694674028116222700,7.55322265625,1.125,46.44375228881836,-18.037500381469727
1694674028136215300,7.57321533203125,1.537500023841858,46.53750228881836,-18.337501525878906
1694674028156228600,7.593228515625,1.8375000953674316,46.70625305175781,-18.412500381469727
1694674028176234800,7.61323486328125,3.075000047683716,45.73125076293945,-18.84375
1694674028196224300,7.633224365234375,2.231250047683716,45.35625076293945,-19.575000762939453
1694674028216234200,7.653234130859375,3.168750047683716,45.16875076293945,-20.475000381469727
1694674028236226800,7.673226806640625,3.262500047683716,44.79375076293945,-20.587501525878906
1694674028256228000,7.69322802734375,4.087500095367432,44.962501525878906,-20.962501525878906
1694674028276225000,7.71322509765625,4.706250190734863,44.34375,-21.58125114440918
1694674028296230000,7.73322998046875,5.212500095367432,43.98750305175781,-21.58125114440918
1694674028316233500,7.7532333984375,6.131250381469727,43.70625305175781,-22.181251525878906
1694674028336239900,7.773239990234375,6.975000381469727,43.35000228881836,-22.387500762939453
1694674028356240400,7.793240478515625,8.193750381469727,42.993751525878906,-22.98750114440918
1694674028376248000,7.813248046875,8.40000057220459,42.1875,-23.400001525878906
1694674028396230100,7.833230224609375,9.84375,41.73750305175781,-23.700000762939453
1694674028416223700,7.8532236328125,11.081250190734863,41.118751525878906,-24.093751907348633
1694674028436242000,7.873241943359375,11.287500381469727,40.48125076293945,-24.412500381469727
1694674028456225800,7.893225830078125,13.875000953674316,39.618751525878906,-24.412500381469727
1694674028476226800,7.913226806640625,15.018750190734863,38.71875,-24.712501525878906
1694674028496224000,7.93322412109375,15.956250190734863,38.10000228881836,-24.618751525878906
1694674028516229000,7.95322900390625,17.08125114440918,37.57500076293945,-24.618751525878906
1694674028536229000,7.97322900390625,17.92500114440918,36.86250305175781,-24.825000762939453
1694674028556236500,7.993236572265625,18.86250114440918,36.1875,-23.92500114440918
1694674028576238000,8.013238037109375,19.068750381469727,35.90625,-24.131250381469727
1694674028596235000,8.033235107421875,20.212501525878906,35.56875228881836,-23.73750114440918
1694674028616239600,8.053239501953126,20.006250381469727,35.47500228881836,-23.73750114440918
1694674028636231400,8.0732314453125,20.73750114440918,35.587501525878906,-23.006250381469727
1694674028656231200,8.093231201171875,20.64375114440918,35.13750076293945,-23.025001525878906
1694674028676235800,8.11323583984375,21.356250762939453,35.13750076293945,-23.212501525878906
1694674028696235500,8.133235595703125,20.73750114440918,35.51250076293945,-22.818750381469727
1694674028716234800,8.15323486328125,20.756250381469727,35.681251525878906,-22.59375
1694674028736219400,8.173219482421874,20.64375114440918,35.4375,-22.40625
1694674028756214000,8.193214111328125,20.137500762939453,35.962501525878906,-22.293750762939453
1694674028776219600,8.2132197265625,20.043750762939453,36.243751525878906,-21.787500381469727
1694674028796206800,8.233206787109374,19.40625,36.22500228881836,-21.900001525878906
1694674028816212200,8.253212158203125,19.3125,37.48125076293945,-21.5625
1694674028836212700,8.273212646484374,17.868751525878906,37.931251525878906,-20.962501525878906
1694674028856220700,8.293220703125,17.887500762939453,38.56875228881836,-20.231250762939453
1694674028876234200,8.313234130859374,16.443750381469727,39.45000076293945,-20.231250762939453
1694674028896229400,8.3332294921875,14.887500762939453,40.181251525878906,-19.33125114440918
1694674028916232200,8.353232177734375,14.606250762939453,41.625,-18.693750381469727
1694674028936230100,8.373230224609374,13.143750190734863,41.88750076293945,-18.09375
1694674028956235300,8.3932353515625,12.956250190734863,42.60000228881836,-17.981250762939453
1694674028976227800,8.413227783203125,11.512500762939453,43.16250228881836,-16.575000762939453
1694674028996232200,8.433232177734375,10.800000190734863,43.61250305175781,-15.956250190734863
1694674029016236000,8.453236083984375,10.293750762939453,44.26875305175781,-15.037500381469727
1694674029036235000,8.473235107421875,8.756250381469727,45.07500076293945,-14.231250762939453
1694674029056233200,8.493233154296876,8.568750381469727,45.09375,-13.237500190734863
1694674029076227800,8.513227783203124,7.537500381469727,45.63750076293945,-12.52500057220459
1694674029096225800,8.533225830078125,7.031250476837158,46.10625076293945,-12.018750190734863
1694674029116214300,8.55321435546875,6,46.181251525878906,-11.625
1694674029136206800,8.573206787109376,5.90625,46.48125076293945,-10.5
1694674029156210700,8.593210693359374,5.71875,46.76250076293945,-10.08750057220459
1694674029176221400,8.613221435546874,4.875,47.025001525878906,-9.99375057220459
1694674029196214800,8.63321484375,4.275000095367432,47.13750076293945,-8.887500762939453
1694674029216228000,8.65322802734375,4.387500286102295,47.0625,-8.58750057220459
1694674029236234500,8.673234375,4.293750286102295,48.056251525878906,-7.650000095367432
1694674029256246300,8.693246337890624,3.6750001907348633,47.26875305175781,-7.481250286102295
1694674029276250600,8.713250732421875,4.087500095367432,47.26875305175781,-7.387500286102295
1694674029296249600,8.73324951171875,3.6750001907348633,47.17500305175781,-7.593750476837158
1694674029316249300,8.753249267578125,4.181250095367432,47.08125305175781,-7.575000286102295
1694674029336239600,8.773239501953125,4.706250190734863,46.72500228881836,-7.987500190734863
1694674029356238800,8.79323876953125,5.118750095367432,46.81875228881836,-7.987500190734863
1694674029376240400,8.813240478515626,5.831250190734863,46.89375305175781,-8.175000190734863
1694674029396224300,8.833224365234376,5.006250381469727,46.70625305175781,-8.287500381469727
1694674029416218400,8.85321826171875,5.737500190734863,47.34375,-8.0625
1694674029436227600,8.8732275390625,5.4375,47.15625,-8.175000190734863
1694674029456213500,8.893213623046876,5.643750190734863,47.08125305175781,-8.0625
1694674029476217900,8.9132177734375,6.356250286102295,47.25,-8.25
1694674029496217900,8.9332177734375,7.106250286102295,47.625,-8.02500057220459
1694674029516225000,8.95322509765625,7.406250476837158,47.15625,-8.643750190734863
1694674029536226800,8.973226806640625,7.518750190734863,47.17500305175781,-8.137500762939453
1694674029556235500,8.993235595703124,8.21250057220459,46.98750305175781,-8.831250190734863
1694674029576237800,9.01323779296875,9.05625057220459,46.80000305175781,-8.925000190734863
1694674029596235300,9.0332353515625,9.768750190734863,46.25625228881836,-9.43125057220459
1694674029616240400,9.053240478515624,10.818750381469727,46.44375228881836,-9.637500762939453
1694674029636240000,9.073239990234375,11.418750762939453,45.900001525878906,-9.9375
1694674029656239600,9.093239501953125,12.131250381469727,45.88125228881836,-10.725000381469727
1694674029676242200,9.1132421875,12.656250953674316,45.525001525878906,-11.137500762939453
1694674029696240000,9.133240234375,13.575000762939453,45.07500076293945,-11.4375
1694674029716245500,9.15324560546875,14.193750381469727,44.79375076293945,-12.24375057220459
1694674029736226600,9.1732265625,15.225000381469727,44.4375,-12.543750762939453
1694674029756218600,9.193218505859376,16.556251525878906,43.53750228881836,-13.36875057220459
1694674029776220400,9.213220458984376,18,42.806251525878906,-13.856250762939453
1694674029796211500,9.23321142578125,19.443750381469727,42.01875305175781,-14.475000381469727
1694674029816215000,9.253215087890625,20.475000381469727,41.55000305175781,-15.075000762939453
1694674029836214500,9.273214599609375,22.650001525878906,40.57500076293945,-15.375000953674316
1694674029856221400,9.293221435546876,22.96875,39.69375228881836,-14.981250762939453
1694674029876234500,9.313234375,24.618751525878906,38.90625,-15.187500953674316
1694674029896228900,9.333228759765625,25.762500762939453,37.33125305175781,-14.718750953674316
1694674029916231400,9.3532314453125,27.20625114440918,36.712501525878906,-14.718750953674316
1694674029936229400,9.3732294921875,28.668750762939453,35.47500228881836,-14.512500762939453
1694674029956234800,9.39323486328125,28.556251525878906,34.42500305175781,-14.343750953674316
1694674029976227000,9.41322705078125,29.793750762939453,33.993751525878906,-14.156250953674316
1694674029996220400,9.433220458984374,29.587501525878906,33.618751525878906,-14.77500057220459
1694674030016227000,9.45322705078125,30.637500762939453,33.09375,-14.362500190734863
1694674030036228400,9.473228271484375,30.637500762939453,32.83125305175781,-13.968750953674316
1694674030056230000,9.49322998046875,31.575000762939453,32.66250228881836,-14.062500953674316
1694674030076225800,9.513225830078126,31.14375114440918,32.23125076293945,-13.762500762939453
1694674030096218600,9.533218505859375,30.95625114440918,32.587501525878906,-13.575000762939453
1694674030116222200,9.55322216796875,31.575000762939453,33.20625305175781,-13.537500381469727
1694674030136210000,9.5732099609375,30.731250762939453,32.94375228881836,-13.46250057220459
1694674030156213200,9.593213134765625,30.95625114440918,33.58125305175781,-13.031250953674316
1694674030176223700,9.6132236328125,30.656251907348633,33.9375,-12.412500381469727
1694674030196216600,9.633216552734375,30.86250114440918,34.72500228881836,-12.90000057220459
1694674030216229000,9.65322900390625,29.306251525878906,35.4375,-12.80625057220459
1694674030236228400,9.673228271484374,28.593751907348633,36.150001525878906,-12.393750190734863
1694674030256230400,9.69323046875,28.500001907348633,37.23750305175781,-11.943750381469727
1694674030276238800,9.71323876953125,27.262500762939453,37.931251525878906,-11.943750381469727
1694674030296241000,9.733240966796876,26.006250381469727,39.243751525878906,-12.131250381469727
1694674030316243200,9.7532431640625,25.406251907348633,40.06875228881836,-11.30625057220459
1694674030336253400,9.77325341796875,24.58125114440918,40.70625305175781,-10.293750762939453
1694674030356250400,9.79325048828125,23.775001525878906,41.79375076293945,-9.168750762939453
1694674030376254700,9.813254638671875,23.0625,42.07500076293945,-8.77500057220459
1694674030396237600,9.833237548828125,22.556251525878906,42.97500228881836,-7.837500095367432
1694674030416229400,9.8532294921875,21.731250762939453,43.61250305175781,-7.425000190734863
1694674030436218600,9.873218505859375,21.243751525878906,44.70000076293945,-6.300000190734863
1694674030456217000,9.893217041015625,20.006250381469727,44.98125076293945,-5.400000095367432
1694674030476220200,9.91322021484375,20.025001525878906,45.45000076293945,-4.78125
1694674030496219000,9.933218994140624,19.51875114440918,45.39375305175781,-3.375000238418579
1694674030516225500,9.9532255859375,19.106250762939453,45.9375,-3.0562500953674316
1694674030536227000,9.97322705078125,18.28125,46.03125,-2.5687501430511475
1694674030556235300,9.9932353515625,17.681251525878906,46.57500076293945,-1.7437500953674316
1694674030576237600,10.013237548828124,17.493751525878906,46.96875,-0.5250000357627869
1694674030596235000,10.033235107421875,16.668750762939453,46.96875,-0.24375000596046448
1694674030616239900,10.053239990234376,16.575000762939453,47.41875076293945,0.05625000223517418
1694674030636240000,10.073239990234375,16.068750381469727,47.34375,0.65625
1694674030656240000,10.093240234375,15.956250190734863,47.681251525878906,0.4687500298023224
1694674030676242700,10.11324267578125,16.462501525878906,47.15625,0.4687500298023224
1694674030696240400,10.133240478515624,16.575000762939453,47.08125305175781,0.956250011920929
1694674030716237800,10.15323779296875,16.89375114440918,47.00625228881836,0.956250011920929
1694674030736221000,10.173220947265625,16.481250762939453,46.81875228881836,1.0500000715255737
1694674030756214800,10.19321484375,18.131250381469727,46.556251525878906,0.65625
1694674030776237600,10.213237548828126,17.8125,46.556251525878906,0.768750011920929
1694674030796220400,10.233220458984375,18.131250381469727,46.556251525878906,0.65625
1694674030816221700,10.2532216796875,18.95625114440918,46.10625076293945,0.4687500298023224
1694674030836219000,10.273218994140626,19.162500381469727,45.91875076293945,-0.03750000149011612
1694674030856224500,10.293224609375,20.193750381469727,45.48750305175781,0.35625001788139343
1694674030876236000,10.313236083984375,19.78125,45.48750305175781,0.5625
1694674030896241000,10.333240966796875,21.450000762939453,44.962501525878906,0.768750011920929
1694674030916240400,10.353240478515625,21.46875,44.71875,1.162500023841858
1694674030936235300,10.3732353515625,22.59375,44.4375,0.675000011920929
1694674030956238300,10.39323828125,23.606250762939453,43.53750228881836,-0.3375000059604645
1694674030976231200,10.413231201171875,23.71875,43.35000228881836,-0.35625001788139343
1694674030996222500,10.433222412109375,25.162500381469727,43.01250076293945,-0.13125000894069672
1694674031016227800,10.453227783203126,25.575000762939453,42.39375305175781,-0.03750000149011612
1694674031036228400,10.473228271484375,26.512500762939453,42.03750228881836,-0.5437500476837158
1694674031056228400,10.493228271484375,26.606250762939453,41.66250228881836,-0.956250011920929
1694674031076224300,10.513224365234375,27.225000381469727,41.212501525878906,-1.5750000476837158
1694674031096216800,10.533216796875,28.443750381469727,40.3125,-2.2875001430511475
1694674031116219600,10.5532197265625,29.062501907348633,40.20000076293945,-3.281250238418579
1694674031136207000,10.57320703125,29.662500381469727,39.375,-4.012500286102295
1694674031156211200,10.593211181640624,29.756250381469727,38.73750305175781,-4.837500095367432
1694674031176222000,10.613221923828124,32.13750076293945,37.837501525878906,-5.737500190734863
1694674031196215300,10.63321533203125,32.13750076293945,36.88125228881836,-5.15625
1694674031216228600,10.653228515625,33.900001525878906,35.212501525878906,-4.96875
1694674031236223500,10.673223388671875,33.993751525878906,34.21875,-5.306250095367432
1694674031256237800,10.69323779296875,34.51875305175781,33.88125228881836,-5.006250381469727
1694674031276244700,10.71324462890625,35.4375,32.8125,-5.325000286102295
1694674031296245200,10.733245361328125,35.32500076293945,32.36250305175781,-5.325000286102295
1694674031316245200,10.753245361328124,36.26250076293945,32.28750228881836,-5.118750095367432
1694674031336257000,10.773257080078125,36.58125305175781,31.312501907348633,-4.837500095367432
1694674031356252700,10.793252685546875,36.67500305175781,31.406251907348633,-4.837500095367432
1694674031376248300,10.813248291015626,36.58125305175781,30.881250381469727,-4.350000381469727
1694674031396229400,10.8332294921875,36.69375228881836,30.543750762939453,-3.543750047683716
1694674031416225800,10.853225830078125,37.42500305175781,30.375001907348633,-3.543750047683716
1694674031436227000,10.87322705078125,37.01250076293945,30.48750114440918,-3.1312501430511475
1694674031456224000,10.89322412109375,36.91875076293945,30.67500114440918,-2.53125
1694674031476222200,10.91322216796875,36.41250228881836,30.58125114440918,-2.231250047683716
1694674031496220200,10.93322021484375,37.35000228881836,31.668750762939453,-2.1000001430511475
1694674031516226300,10.953226318359375,36.11250305175781,32.10000228881836,-1.8000000715255737
1694674031536227000,10.97322705078125,36.11250305175781,32.8125,-1.9875000715255737
1694674031556235000,10.993235107421874,35.0625,33.50625228881836,-1.9875000715255737
1694674031576237000,11.013237060546874,34.35000228881836,34.40625,-1.8562500476837158
1694674031596234500,11.033234375,33.54375076293945,35.73750305175781,-1.2375000715255737
1694674031616239400,11.0532392578125,32.28750228881836,36.01875305175781,-1.03125
1694674031636243200,11.0732431640625,32.32500076293945,37.72500228881836,0.01875000074505806
1694674031656230400,11.09323046875,30.975000381469727,37.98750305175781,0.39375001192092896
1694674031676235000,11.113235107421875,30.056251525878906,39.431251525878906,1.3312500715255737
1694674031696234800,11.13323486328125,29.437501907348633,39.97500228881836,1.5562500953674316
1694674031716242000,11.153241943359374,28.293750762939453,40.23750305175781,1.631250023841858
1694674031736224300,11.173224365234375,27.075000762939453,41.66250228881836,2.5687501430511475
1694674031756218000,11.193218017578126,26.231250762939453,42.1875,2.3625001907348633
1694674031776239400,11.2132392578125,25.218751907348633,43.275001525878906,3.093750238418579
1694674031796223000,11.233222900390626,23.55000114440918,43.61250305175781,2.6812500953674316
1694674031816223700,11.2532236328125,23.043750762939453,44.4375,3.8062500953674316
1694674031836232000,11.27323193359375,22.33125114440918,44.51250076293945,3.9937500953674316
1694674031856234200,11.293234130859375,21.1875,44.868751525878906,3.9937500953674316
1694674031876243000,11.313242919921874,20.887500762939453,45.39375305175781,3.9000000953674316
1694674031896245500,11.33324560546875,20.043750762939453,45.84375,3.9000000953674316
1694674031916243000,11.353242919921875,19.837501525878906,45.75,3.9000000953674316
1694674031936236800,11.37323681640625,19.42500114440918,45.76875305175781,4.181250095367432
1694674031956238800,11.39323876953125,20.475000381469727,46.20000076293945,4.21875
1694674031976228900,11.413228759765625,19.537500381469727,46.10625076293945,4.3125
1694674031996217300,11.43321728515625,19.42500114440918,45.84375,3.8812501430511475
1694674032016223700,11.4532236328125,20.25,46.181251525878906,3.6187500953674316
1694674032036225000,11.47322509765625,19.61250114440918,45.54375076293945,3.075000047683716
1694674032056225800,11.493225830078124,19.818750381469727,46.23750305175781,2.0812501907348633
1694674032076223200,11.51322314453125,19.181251525878906,45.69375228881836,1.7625000476837158
1694674032096216300,11.53321630859375,19.912500381469727,46.14375305175781,1.5937501192092896
1694674032116218400,11.55321826171875,19.275001525878906,45.95625305175781,1.2750000953674316
1694674032136204800,11.573204833984375,20.73750114440918,45.76875305175781,0.7875000238418579
1694674032156209700,11.593209716796874,20.625,45.39375305175781,0.4687500298023224
1694674032176221000,11.613220947265624,20.306251525878906,45.65625,-0.22500000894069672
1694674032196214800,11.63321484375,21.84375,45.20625305175781,-0.5250000357627869
1694674032216228000,11.65322802734375,21.318750381469727,45.54375076293945,-1.3312500715255737
1694674032236223500,11.673223388671875,22.125,45.243751525878906,-2.325000047683716
1694674032256238000,11.693238037109374,21.825000762939453,45.07500076293945,-2.4375
1694674032276244700,11.71324462890625,23.568750381469727,44.868751525878906,-3.637500047683716
1694674032296245500,11.73324560546875,23.231250762939453,43.96875,-4.162500381469727
1694674032316245200,11.753245361328124,23.64375114440918,43.33125305175781,-4.893750190734863
1694674032336255200,11.773255126953124,24.150001525878906,43.125,-6.206250190734863
1694674032356251600,11.793251708984375,24.431251525878906,42.30000305175781,-7.012500286102295
1694674032376255500,11.81325537109375,26.700000762939453,41.04375076293945,-8.34375
1694674032396234800,11.83323486328125,27.20625114440918,40.23750305175781,-8.86875057220459
1694674032416226300,11.853226318359376,28.856250762939453,39.07500076293945,-9.487500190734863
1694674032436227000,11.87322705078125,29.475000381469727,38.53125,-9.881250381469727
1694674032456225800,11.893225830078125,29.662500381469727,37.53750228881836,-10.3125
1694674032476222200,11.91322216796875,31.218751907348633,36.20625305175781,-10.537500381469727
1694674032496220000,11.933219970703124,31.725000381469727,35.15625,-10.668750762939453
1694674032516226000,11.95322607421875,32.45625305175781,34.42500305175781,-11.362500190734863
1694674032536226800,11.973226806640625,32.118751525878906,33.69375228881836,-12
1694674032556234800,11.99323486328125,33.78750228881836,32.64375305175781,-11.71875
1694674032576236800,12.01323681640625,33.150001525878906,31.837501525878906,-11.943750381469727
1694674032596234200,12.033234130859375,33.5625,31.556251525878906,-12.356250762939453
1694674032616239000,12.053239013671876,34.06875228881836,31.725000381469727,-12.937500953674316
1694674032636241000,12.073240966796876,33.65625,31.275001525878906,-13.46250057220459
1694674032656241200,12.0932412109375,34.38750076293945,30.67500114440918,-12.862500190734863
1694674032676243500,12.113243408203125,33.45000076293945,30.67500114440918,-12.675000190734863
1694674032696241000,12.133240966796874,33.95625305175781,31.106250762939453,-13.162500381469727
1694674032716240100,12.153240234375,32.493751525878906,31.537500381469727,-13.46250057220459
1694674032736222500,12.173222412109375,33.01875305175781,32.41875076293945,-13.74375057220459
1694674032756215800,12.1932158203125,31.462501525878906,32.75625228881836,-13.856250762939453
1694674032776230000,12.21322998046875,30.11250114440918,33.806251525878906,-14.643750190734863
1694674032796214500,12.233214599609376,28.23750114440918,35.73750305175781,-15.131250381469727
1694674032816217300,12.25321728515625,27.731250762939453,36.806251525878906,-14.700000762939453
1694674032836227300,12.273227294921876,27.01875114440918,38.41875076293945,-13.968750953674316
1694674032856231200,12.293231201171874,25.481250762939453,39.39375305175781,-13.256250381469727
1694674032876241200,12.3132412109375,24.656251907348633,40.650001525878906,-12.71250057220459
1694674032896244700,12.33324462890625,23.212501525878906,40.81875228881836,-12.731250762939453
1694674032916243000,12.353242919921875,22.6875,41.53125,-12.61875057220459
1694674032936237000,12.373237060546876,21.86250114440918,42.618751525878906,-12.093750953674316
1694674032956239400,12.3932392578125,20.212501525878906,43.14375305175781,-11.40000057220459
1694674032976231200,12.413231201171875,19.818750381469727,44.400001525878906,-11.0625
1694674032996228600,12.433228515625,17.943750381469727,44.400001525878906,-10.6875
1694674033016232700,12.453232666015625,18.075000762939453,45.65625,-10.350000381469727
1694674033036223700,12.4732236328125,16.61250114440918,45.73125076293945,-10.27500057220459
1694674033056232000,12.49323193359375,14.756250381469727,46.44375228881836,-10.27500057220459
1694674033076226800,12.513226806640626,13.293750762939453,47.23125076293945,-9.975000381469727
1694674033096219100,12.53321923828125,12.675000190734863,47.41875076293945,-9.768750190734863
1694674033116222000,12.553221923828126,11.34375,47.94375228881836,-9.581250190734863
1694674033136207000,12.57320703125,11.25,48.31875228881836,-8.756250381469727
1694674033156211000,12.5932109375,10.93125057220459,49.031253814697266,-8.737500190734863
1694674033176221400,12.613221435546874,9.693750381469727,48.67500305175781,-8.475000381469727
1694674033196214800,12.63321484375,10.106250762939453,49.125003814697266,-8.25
1694674033216228000,12.65322802734375,9.600000381469727,49.312503814697266,-8.043750762939453
1694674033236227600,12.6732275390625,9.1875,48.88125228881836,-7.556250095367432
1694674033256229600,12.693229736328124,9.09375,49.85625076293945,-7.631250381469727
1694674033276238000,12.713238037109376,8.362500190734863,49.593753814697266,-7.050000190734863
1694674033296240400,12.733240478515626,8.268750190734863,49.875003814697266,-6.843750476837158
1694674033316241400,12.753241455078125,8.362500190734863,49.61250305175781,-6.637500286102295
1694674033336241200,12.7732412109375,8.268750190734863,49.687503814697266,-6.843750476837158
1694674033356241200,12.7932412109375,7.331250190734863,49.76250076293945,-7.256250381469727
1694674033376240400,12.813240478515626,7.425000190734863,49.687503814697266,-6.956250190734863
1694674033396224300,12.833224365234376,7.837500095367432,50.025001525878906,-7.556250095367432
1694674033416219400,12.853219482421874,7.631250381469727,49.76250076293945,-7.462500095367432
1694674033436213200,12.873213134765624,8.362500190734863,50.025001525878906,-7.331250190734863
1694674033456219100,12.89321923828125,7.931250095367432,49.406253814697266,-7.462500095367432
1694674033476216000,12.913216064453126,9.61875057220459,49.687503814697266,-7.537500381469727
1694674033496216600,12.933216552734375,9.1875,49.500003814697266,-7.331250190734863
1694674033516224500,12.953224609375,9.09375,49.23750305175781,-7.143750190734863
1694674033536226600,12.9732265625,9.1875,49.48125076293945,-7.743750095367432
1694674033556235500,12.993235595703124,9.09375,49.51875305175781,-7.237500190734863
1694674033576237800,13.01323779296875,9.71250057220459,49.23750305175781,-7.743750095367432
1694674033596235500,13.033235595703125,8.981250762939453,49.06875228881836,-7.556250095367432
1694674033616240400,13.053240478515624,9.393750190734863,49.23750305175781,-7.856250286102295
1694674033636233000,13.07323291015625,8.887500762939453,49.23750305175781,-7.443750381469727
1694674033656223200,13.09322314453125,9.075000762939453,50.118751525878906,-8.02500057220459
1694674033676236800,13.11323681640625,9.1875,49.76250076293945,-7.425000190734863
1694674033696236500,13.133236572265625,8.77500057220459,49.593753814697266,-7.331250190734863
1694674033716243500,13.153243408203124,9.825000762939453,49.70625305175781,-6.918750286102295
1694674033736225500,13.1732255859375,8.68125057220459,49.33125305175781,-7.143750190734863
1694674033756219400,13.193219482421876,9.731250762939453,49.70625305175781,-6.412500381469727
1694674033776225300,13.213225341796875,9.318750381469727,49.72500228881836,-6.018750190734863
1694674033796211000,13.2332109375,9.018750190734863,50.250003814697266,-5.8125
1694674033816214800,13.25321484375,8.700000762939453,50.156253814697266,-5.8125
1694674033836225500,13.2732255859375,8.381250381469727,49.72500228881836,-5.831250190734863
1694674033856230100,13.293230224609376,7.968750476837158,50.156253814697266,-5.625
1694674033876241000,13.313240966796876,7.556250095367432,50.08125305175781,-5.53125
1694674033896244700,13.33324462890625,8.175000190734863,50.156253814697266,-5.71875
1694674033916243000,13.353242919921875,7.462500095367432,50.17500305175781,-5.231250286102295
1694674033936237000,13.373237060546876,8.40000057220459,50.17500305175781,-5.325000286102295
1694674033956239600,13.393239501953126,7.987500190734863,50.17500305175781,-5.418750286102295
1694674033976238300,13.41323828125,7.987500190734863,49.98750305175781,-5.325000286102295
1694674033996225300,13.433225341796875,8.40000057220459,49.91250228881836,-4.818750381469727
1694674034016229600,13.453229736328124,8.30625057220459,50.08125305175781,-4.912500381469727
1694674034036221400,13.473221435546876,8.71875,50.28750228881836,-4.800000190734863
1694674034056222500,13.493222412109375,8.625,49.85625076293945,-4.21875
1694674034076220000,13.513219970703124,9.037500381469727,50.47500228881836,-4.293750286102295
1694674034096213800,13.5332138671875,8.831250190734863,49.931251525878906,-3.9937500953674316
1694674034116216800,13.553216796875,9.131250381469727,50.47500228881836,-4.181250095367432
1694674034136209000,13.573208984375,8.71875,50.19375228881836,-4.5
1694674034156213000,13.593212890625,7.893750190734863,50.28750228881836,-4.012500286102295
1694674034176223500,13.613223388671875,8.193750381469727,50.19375228881836,-4.518750190734863
1694674034196216600,13.633216552734375,7.462500095367432,50.10000228881836,-4.725000381469727
1694674034216229600,13.653229736328125,8.71875,50.38125228881836,-4.293750286102295
1694674034236224000,13.67322412109375,7.687500476837158,49.837501525878906,-4.425000190734863
1694674034256238300,13.69323828125,8.418750762939453,50.64375305175781,-4.293750286102295
1694674034276245000,13.713244873046875,8.193750381469727,50.36250305175781,-4.518750190734863
1694674034296234200,13.733234130859374,7.781250476837158,50.38125228881836,-4.21875
1694674034316238600,13.753238525390625,7.687500476837158,50.36250305175781,-4.3125
1694674034336245200,13.773245361328126,6.750000476837158,50.36250305175781,-4.21875
1694674034356244200,13.793244140625,6.731250286102295,50.88750076293945,-5.025000095367432
1694674034376250000,13.81325,6.731250286102295,50.10000228881836,-4.425000190734863
1694674034396231400,13.8332314453125,6.956250190734863,50.812503814697266,-4.40625
1694674034416224000,13.85322412109375,6.337500095367432,50.45625305175781,-4.425000190734863
1694674034436216600,13.873216552734375,6.843750476837158,51.150001525878906,-4.912500381469727
1694674034456216300,13.89321630859375,7.050000190734863,50.26875305175781,-5.025000095367432
1694674034476212500,13.91321240234375,6.431250095367432,50.00625228881836,-4.743750095367432
1694674034496213200,13.933213134765625,7.462500095367432,50.531253814697266,-5.118750095367432
1694674034516222000,13.953221923828124,7.687500476837158,49.743751525878906,-4.537500381469727
1694674034536224500,13.973224609375,8.40000057220459,50.26875305175781,-5.006250381469727
1694674034556233700,13.993233642578126,7.575000286102295,50.00625228881836,-5.025000095367432
1694674034576236800,14.01323681640625,7.556250095367432,49.91250228881836,-5.231250286102295
1694674034596234800,14.03323486328125,7.762500286102295,50.00625228881836,-5.137500286102295
1694674034616240000,14.053240234375,6.937500476837158,50.17500305175781,-5.025000095367432
1694674034636247300,14.073247314453125,6.637500286102295,50.36250305175781,-4.425000190734863
1694674034656234800,14.09323486328125,6.356250286102295,50.60625076293945,-2.1937501430511475
1694674034676245500,14.11324560546875,6.243750095367432,51.187503814697266,-3.6937501430511475
1694674034696242700,14.13324267578125,6.131250381469727,50.56875228881836,-3.825000047683716
1694674034716239600,14.153239501953125,6.337500095367432,51.337501525878906,-4.706250190734863
1694674034736222000,14.173221923828125,5.793750286102295,50.79375076293945,-5.137500286102295
1694674034756218000,14.193218017578126,5.15625,50.493751525878906,-6.168750286102295
1694674034776220700,14.213220703125,6.618750095367432,50.73750305175781,-7.031250476837158
1694674034796207400,14.233207275390624,6.393750190734863,50.025001525878906,-7.368750095367432
1694674034816209200,14.253209228515624,7.218750476837158,50.56875228881836,-7.443750381469727
1694674034836221400,14.273221435546875,7.012500286102295,50.38125228881836,-7.443750381469727
1694674034856227000,14.29322705078125,8.362500190734863,50.56875228881836,-7.425000190734863
1694674034876238800,14.31323876953125,8.793750762939453,50.04375076293945,-7.031250476837158
1694674034896243500,14.333243408203124,8.77500057220459,49.85625076293945,-7.743750095367432
1694674034916242400,14.353242431640625,9.1875,49.743751525878906,-8.231250762939453
1694674034936236800,14.37323681640625,9.1875,49.29375076293945,-8.362500190734863
1694674034956239600,14.393239501953126,10.3125,49.38750076293945,-8.53125
1694674034976242400,14.413242431640626,9.487500190734863,49.20000076293945,-8.96250057220459
1694674034996228400,14.433228271484374,11.043750762939453,49.125003814697266,-8.643750190734863
1694674035016232000,14.45323193359375,11.86875057220459,48.95625305175781,-8.737500190734863
1694674035036231000,14.47323095703125,11.643750190734863,48.13125228881836,-9.675000190734863
1694674035056237300,14.4932373046875,12.375000953674316,48.20625305175781,-9.956250190734863
1694674035076231700,14.513231689453125,12.787500381469727,47.493751525878906,-10.27500057220459
1694674035096223000,14.533222900390625,14.006250381469727,47.13750076293945,-11.0625
1694674035116238000,14.553238037109375,13.46250057220459,46.48125076293945,-12.112500190734863
1694674035136223200,14.57322314453125,15.768750190734863,46.66875076293945,-12.262500762939453
1694674035156222500,14.593222412109375,15.412500381469727,45.5625,-13.725000381469727
1694674035176229400,14.6132294921875,12.05625057220459,46.42500305175781,-17.287500381469727
1694674035196219600,14.6332197265625,12.037500381469727,45.900001525878906,-17.193750381469727
1694674035216230400,14.65323046875,13.481250762939453,44.45625305175781,-18.318750381469727
1694674035236223700,14.6732236328125,16.462501525878906,42.84375,-19.33125114440918
1694674035256237300,14.6932373046875,17.92500114440918,42.60000228881836,-18.712501525878906
1694674035276243500,14.713243408203125,19.80000114440918,41.118751525878906,-18.525001525878906
1694674035296243700,14.73324365234375,20.625,40.23750305175781,-17.83125114440918
1694674035316252000,14.753251953125,21.65625,39.95625305175781,-18.525001525878906
1694674035336239600,14.773239501953125,20.92500114440918,39.76875305175781,-19.05000114440918
1694674035356238800,14.79323876953125,20.381250381469727,39.20625305175781,-20.381250381469727
1694674035376245800,14.813245849609375,21.618751525878906,39.26250076293945,-21.58125114440918
1694674035396228000,14.83322802734375,20.962501525878906,38.17500305175781,-22.42500114440918
1694674035416222000,14.853221923828125,23.0625,37.931251525878906,-21.693750381469727
1694674035436212700,14.873212646484374,23.15625,37.23750305175781,-21.412500381469727
1694674035456213500,14.893213623046876,25.350000381469727,36.1875,-21.11250114440918
1694674035476211500,14.91321142578125,24.618751525878906,35.75625228881836,-20.73750114440918
1694674035496213000,14.933212890625,24.412500381469727,35.56875228881836,-21.131250381469727
1694674035516221700,14.9532216796875,25.443750381469727,35.73750305175781,-21.318750381469727
1694674035536224500,14.973224609375,23.775001525878906,35.36250305175781,-21.76875114440918
1694674035556234200,14.993234130859374,24.937501907348633,35.64375305175781,-21.225000381469727
1694674035576237300,15.0132373046875,25.33125114440918,35.38125228881836,-21.131250381469727
1694674035596235300,15.0332353515625,26.17500114440918,35.38125228881836,-21.225000381469727
1694674035616240600,15.05324072265625,26.17500114440918,34.85625076293945,-21.131250381469727
1694674035636240100,15.073240234375,25.968751907348633,34.3125,-21.262500762939453
1694674035656239400,15.0932392578125,25.856250762939453,34.76250076293945,-21.65625
1694674035676237600,15.113237548828126,24.918750762939453,34.66875076293945,-21.46875
1694674035696236800,15.13323681640625,25.668750762939453,35.13750076293945,-20.943750381469727
1694674035716243000,15.153242919921874,24.712501525878906,35.56875228881836,-21.337501525878906
1694674035736224800,15.173224853515626,25.762500762939453,36.28125,-21.09375
1694674035756217900,15.1932177734375,24.506250381469727,36.26250076293945,-21.225000381469727
1694674035776220000,15.213219970703125,24.20625114440918,37.25625228881836,-21.09375
1694674035796207400,15.233207275390624,23.381250381469727,37.06875228881836,-21.01875114440918
1694674035816206300,15.253206298828125,22.03125,37.33125305175781,-20.71875
1694674035836219100,15.27321923828125,21.825000762939453,38.212501525878906,-20.793750762939453
1694674035856225500,15.2932255859375,20.90625,38.493751525878906,-20.493751525878906
1694674035876237600,15.313237548828125,20.793750762939453,39.91875076293945,-20.568750381469727
1694674035896242700,15.33324267578125,18.9375,40.35000228881836,-20.287500381469727
1694674035916242000,15.353241943359375,18.637500762939453,41.681251525878906,-19.743751525878906
1694674035936236800,15.37323681640625,17.493751525878906,41.681251525878906,-19.556251525878906
1694674035956239600,15.393239501953126,16.462501525878906,42.13125228881836,-19.350000381469727
1694674035976237800,15.41323779296875,15.018750190734863,43.125,-19.03125
1694674035996228600,15.433228515625,14.49375057220459,43.29375076293945,-18.84375
1694674036016239600,15.453239501953124,13.781250953674316,44.28750228881836,-18.318750381469727
1694674036036237000,15.473237060546875,12.843750953674316,44.28750228881836,-18.337501525878906
1694674036056234500,15.493234375,12.356250762939453,45.63750076293945,-17.493751525878906
1694674036076228000,15.51322802734375,10.893750190734863,45.63750076293945,-17.325000762939453
1694674036096219400,15.533219482421876,10.59375,46.80000305175781,-16.575000762939453
1694674036116231400,15.5532314453125,9.675000190734863,46.80000305175781,-16.293750762939453
1694674036136214500,15.573214599609376,8.325000762939453,46.44375228881836,-16.125
1694674036156216000,15.593216064453125,7.593750476837158,47.775001525878906,-15.881250381469727
1694674036176224800,15.613224853515625,6.356250286102295,47.17500305175781,-15.112500190734863
1694674036196216600,15.633216552734375,6.487500190734863,48.07500076293945,-14.475000381469727
1694674036216228600,15.653228515625,5.643750190734863,47.625,-14.718750953674316
1694674036236234000,15.67323388671875,5.025000095367432,48.86250305175781,-14.287500381469727
1694674036256245500,15.69324560546875,3.6750001907348633,48.50625228881836,-14.606250762939453
1694674036276249900,15.713249755859374,3.375000238418579,48.243751525878906,-14.02500057220459
1694674036296237300,15.7332373046875,3.075000047683716,49.218753814697266,-14.006250381469727
1694674036316245500,15.75324560546875,2.4375,48.69375228881836,-14.02500057220459
1694674036336232400,15.773232421875,2.0250000953674316,49.406253814697266,-13.500000953674316
1694674036356233700,15.793233642578125,0.8812500238418579,49.05000305175781,-13.425000190734863
1694674036376242000,15.813241943359374,1.1062500476837158,49.593753814697266,-13.312500953674316
1694674036396240600,15.83324072265625,0.375,49.14375305175781,-13.537500381469727
1694674036416231400,15.8532314453125,-0.4687500298023224,48.69375228881836,-13.668750762939453
1694674036436220000,15.873219970703126,0.16875000298023224,48.95625305175781,-13.83750057220459
1694674036456219100,15.89321923828125,0.24375000596046448,48.31875228881836,-14.268750190734863
1694674036476214300,15.91321435546875,0.768750011920929,49.10625076293945,-15.131250381469727
1694674036496214800,15.93321484375,-0.26250001788139343,48.13125228881836,-14.77500057220459
1694674036516222700,15.95322265625,0.4687500298023224,48.843753814697266,-14.643750190734863
1694674036536224800,15.973224853515624,0.862500011920929,48.656253814697266,-14.943750381469727
1694674036556234000,15.99323388671875,0.956250011920929,47.775001525878906,-15.187500953674316
1694674036576236800,16.01323681640625,1.4812500476837158,48.656253814697266,-15.450000762939453
1694674036596234800,16.03323486328125,1.068750023841858,47.66250228881836,-15.487500190734863
1694674036616239900,16.053239990234374,2.418750047683716,48.375003814697266,-15.843750953674316
1694674036636234000,16.07323388671875,2.606250047683716,48.01875305175781,-16.368751525878906
1694674036656223200,16.09322314453125,3.4312500953674316,47.73750305175781,-16.668750762939453
1694674036676232200,16.113232177734375,3.543750047683716,47.118751525878906,-16.575000762939453
1694674036696233200,16.133233154296875,5.081250190734863,47.55000305175781,-17.231250762939453
1694674036716241200,16.1532412109375,4.78125,46.931251525878906,-16.856250762939453
1694674036736224000,16.17322412109375,4.762500286102295,46.48125076293945,-17.475000381469727
1694674036756217600,16.193217529296874,6.018750190734863,46.931251525878906,-17.64375114440918
1694674036776220200,16.21322021484375,5.793750286102295,46.29375076293945,-18.1875
1694674036796211500,16.23321142578125,7.987500190734863,46.462501525878906,-18.431251525878906
1694674036816208000,16.253207763671874,7.237500190734863,45.13125228881836,-18.900001525878906
1694674036836220400,16.273220458984376,8.77500057220459,45.46875,-19.875
1694674036856226600,16.2932265625,8.981250762939453,44.75625228881836,-20.193750381469727
1694674036876238300,16.31323828125,8.662500381469727,43.931251525878906,-20.53125
1694674036896243200,16.3332431640625,9.393750190734863,44.56875228881836,-20.793750762939453
1694674036916242400,16.353242431640624,9.05625057220459,43.44375228881836,-22.256250381469727
1694674036936237000,16.373237060546874,9.975000381469727,42.900001525878906,-23.26875114440918
1694674036956240000,16.393239990234374,9.43125057220459,41.90625,-23.90625
1694674036976238000,16.413238037109377,10.987500190734863,41.625,-24.806251525878906
1694674036996225000,16.43322509765625,10.55625057220459,41.15625,-25.42500114440918
1694674037016236300,16.453236328125,10.631250381469727,40.087501525878906,-26.26875114440918
1694674037036234500,16.473234375,11.550000190734863,39.78750228881836,-27.468751907348633
1694674037056240400,16.493240478515624,11.325000762939453,38.08125305175781,-28.312501907348633
1694674037076233000,16.51323291015625,13.593750953674316,37.80000305175781,-29.306251525878906
1694674037096224000,16.53322412109375,13.387500762939453,36.20625305175781,-29.156251907348633
1694674037116227600,16.5532275390625,14.925000190734863,35.8125,-30.450000762939453
1694674037136212000,16.5732119140625,15.318750381469727,34.57500076293945,-30.58125114440918
1694674037156214300,16.59321435546875,16.368751525878906,34.03125,-30.993751525878906
1694674037176223500,16.613223388671877,17.17500114440918,32.98125076293945,-31.106250762939453
1694674037196215800,16.6332158203125,16.762500762939453,31.912500381469727,-30.937501907348633
1694674037216228000,16.65322802734375,18.09375,31.818750381469727,-31.42500114440918
1694674037236234000,16.67323388671875,18.318750381469727,31.293750762939453,-31.33125114440918
1694674037256245500,16.69324560546875,18.712501525878906,31.275001525878906,-31.837501525878906
1694674037276249900,16.713249755859376,18.825000762939453,30.843751907348633,-31.256250381469727
1694674037296248600,16.73324853515625,19.350000381469727,30.937501907348633,-31.537500381469727
1694674037316254200,16.753254150390624,18.9375,30.67500114440918,-31.14375114440918
1694674037336247300,16.773247314453126,18.525001525878906,30.318750381469727,-31.162500381469727
1694674037356244500,16.793244384765625,19.14375114440918,31.125001907348633,-30.731250762939453
1694674037376249600,16.81324951171875,18.84375,31.125001907348633,-30.731250762939453
1694674037396230700,16.833230712890625,19.6875,32.38125228881836,-30.48750114440918
1694674037416222700,16.85322265625,18.450000762939453,32.75625228881836,-29.775001525878906
1694674037436212700,16.873212646484376,18.5625,34.181251525878906,-29.231250762939453
1694674037456230400,16.89323046875,17.325000762939453,34.462501525878906,-28.631250381469727
1694674037476223200,16.91322314453125,16.59375,34.368751525878906,-29.062501907348633
1694674037496221200,16.93322119140625,16.931251525878906,36.337501525878906,-28.181251525878906
1694674037516226800,16.953226806640625,14.96250057220459,36.78750228881836,-27.693750381469727
1694674037536227600,16.9732275390625,14.77500057220459,38.64375305175781,-27.150001525878906
1694674037556235300,16.9932353515625,12.918750762939453,38.75625228881836,-26.26875114440918
1694674037576237300,17.0132373046875,13.143750190734863,40.63125228881836,-26.006250381469727
1694674037596234500,17.033234375,11.287500381469727,41.00625228881836,-24.806251525878906
1694674037616239400,17.0532392578125,10.762500762939453,42.16875076293945,-24.48750114440918
1694674037636239000,17.073239013671873,9.862500190734863,42.806251525878906,-23.475000381469727
1694674037656245500,17.09324560546875,8.418750762939453,42.54375076293945,-23.193750381469727
1694674037676239400,17.1132392578125,7.481250286102295,43.96875,-22.556251525878906
1694674037696237600,17.133237548828124,6.862500190734863,44.34375,-21.84375
1694674037716243500,17.153243408203124,5.4375,46.3125,-21.01875114440918
1694674037736225300,17.173225341796876,4.40625,45.76875305175781,-21.243751525878906
1694674037756217900,17.1932177734375,3.7875001430511475,46.931251525878906,-20.71875
1694674037776219600,17.2132197265625,2.34375,46.05000305175781,-20.15625
1694674037796212000,17.2332119140625,1.5187500715255737,45.86250305175781,-19.96875
1694674037816211200,17.253211181640626,1.21875,47.04375076293945,-19.23750114440918
1694674037836211500,17.27321142578125,0.28125,46.96875,-19.05000114440918
1694674037856219400,17.293219482421875,0.8062500357627869,48.03750228881836,-18.918750762939453
1694674037876233000,17.31323291015625,-0.11250000447034836,47.41875076293945,-18.731250762939453
1694674037896239400,17.3332392578125,0.1875,48.13125228881836,-18.412500381469727
1694674037916239600,17.353239501953126,-0.3375000059604645,47.212501525878906,-19.14375114440918
1694674037936235500,17.373235595703125,-0.6375000476837158,46.78125,-18.5625
1694674037956239000,17.393239013671874,0.16875000298023224,47.04375076293945,-19.443750381469727
1694674037976237800,17.41323779296875,-0.13125000894069672,46.42500305175781,-19.068750381469727
1694674037996225500,17.4332255859375,0.4687500298023224,47.118751525878906,-19.856250762939453
1694674038016226000,17.45322607421875,-0.26250001788139343,46.03125,-20.587501525878906
1694674038036220000,17.473219970703123,0.4687500298023224,47.34375,-21.056251525878906
1694674038056222000,17.493221923828123,0.5437500476837158,46.01250076293945,-21.1875
1694674038076219600,17.5132197265625,0.5625,46.81875228881836,-21.168750762939453
1694674038096216300,17.53321630859375,0.5437500476837158,46.35000228881836,-21.881250381469727
1694674038116215000,17.553215087890624,0.22500000894069672,45.1875,-22.125
1694674038136203300,17.573203369140625,1.4625000953674316,45.45000076293945,-22.818750381469727
1694674038156200700,17.59320068359375,1.4625000953674316,44.47500228881836,-22.725000381469727
1694674038176214300,17.61321435546875,2.5875000953674316,45.16875076293945,-23.606250762939453
1694674038196210000,17.6332099609375,2.15625,44.17500305175781,-24.037500381469727
1694674038216225000,17.65322509765625,3.3937501907348633,44.32500076293945,-25.42500114440918
1694674038236232700,17.673232666015625,3.375000238418579,43.16250228881836,-25.762500762939453
1694674038256245500,17.69324560546875,4.106250286102295,41.64375305175781,-26.100000381469727
1694674038276250600,17.713250732421876,5.231250286102295,42.243751525878906,-27.187501907348633
1694674038296238600,17.733238525390625,5.212500095367432,41.17500305175781,-27.618751525878906
1694674038316247000,17.7532470703125,6.768750190734863,40.98750305175781,-28.51875114440918
1694674038336242700,17.77324267578125,7.050000190734863,39.712501525878906,-29.250001907348633
1694674038356242000,17.793241943359376,8.700000762939453,39.525001525878906,-30.243751525878906
1694674038376248000,17.813248046875,9.09375,38.00625228881836,-31.087501525878906
1694674038396237300,17.8332373046875,9.1875,36.39375305175781,-31.33125114440918
1694674038416228600,17.853228515625,11.568750381469727,35.60625076293945,-31.725000381469727
1694674038436217900,17.8732177734375,12.693750381469727,34.181251525878906,-32.04375076293945
1694674038456230100,17.893230224609376,15.600000381469727,33.46875,-32.53125
1694674038476222700,17.91322265625,16.012500762939453,32.23125076293945,-32.04375076293945
1694674038496220700,17.933220703125,17.775001525878906,31.875001907348633,-32.4375
1694674038516226600,17.9532265625,18.712501525878906,30.468751907348633,-32.47500228881836
1694674038536227300,17.973227294921877,18.693750381469727,29.043750762939453,-32.306251525878906
1694674038556235300,17.9932353515625,19.631250381469727,28.968751907348633,-32.400001525878906
1694674038576237000,18.013237060546874,19.42500114440918,27.806251525878906,-32.23125076293945
1694674038596234500,18.033234375,20.887500762939453,28.781251907348633,-32.681251525878906
1694674038616239400,18.0532392578125,19.631250381469727,27.993751525878906,-32.32500076293945
1694674038636223700,18.0732236328125,20.26875114440918,29.156251907348633,-32.17500305175781
1694674038656216800,18.093216796875,19.106250762939453,28.687501907348633,-32.41875076293945
1694674038676218400,18.11321826171875,19.96875,29.943750381469727,-32.15625
1694674038696211700,18.133211669921874,18.918750762939453,29.943750381469727,-31.762500762939453
1694674038716225300,18.153225341796876,17.36250114440918,30.468751907348633,-31.98750114440918
1694674038736213000,18.173212890625,17.36250114440918,32.0625,-31.837501525878906
1694674038756210700,18.193210693359376,16.125,31.98750114440918,-31.256250381469727
1694674038776216300,18.21321630859375,16.03125,33.86250305175781,-31.200000762939453
1694674038796205300,18.233205322265626,14.606250762939453,34.40625,-30.093751907348633
1694674038816205600,18.25320556640625,14.30625057220459,36.45000076293945,-29.943750381469727
1694674038836208400,18.27320849609375,12.862500190734863,36.82500076293945,-29.137500762939453
1694674038856218000,18.293218017578123,11.100000381469727,36.82500076293945,-28.762500762939453
1694674038876233000,18.31323291015625,11.137500762939453,39.69375228881836,-27.787500381469727
1694674038896240000,18.333240234375,9.262500762939453,39.431251525878906,-27.30000114440918
1694674038916241000,18.353240966796875,9.28125,41.41875076293945,-25.931251525878906
1694674038936236800,18.37323681640625,7.537500381469727,41.25,-25.162500381469727
1694674038956240600,18.39324072265625,7.350000381469727,43.48125076293945,-24.39375114440918
1694674038976238800,18.41323876953125,5.587500095367432,43.21875,-24.318750381469727
1694674038996226800,18.433226806640626,4.856250286102295,42.76875305175781,-24.037500381469727
1694674039016232700,18.453232666015627,3.731250047683716,44.118751525878906,-23.512500762939453
1694674039036232000,18.47323193359375,2.90625,43.76250076293945,-23.137500762939453
1694674039056238600,18.493238525390623,3.0375001430511475,45.5625,-22.068750381469727
1694674039076231700,18.513231689453125,1.6875001192092896,44.92500305175781,-22.21875
1694674039096222500,18.533222412109374,1.8000000715255737,46.10625076293945,-21.46875
1694674039116222500,18.553222412109374,1.4812500476837158,45.39375305175781,-21.48750114440918
1694674039136208000,18.573207763671874,1.3875000476837158,46.53750228881836,-21.67500114440918
1694674039156204000,18.5932041015625,0.956250011920929,45.65625,-21.600000381469727
1694674039176216300,18.61321630859375,0.956250011920929,44.47500228881836,-22.23750114440918
1694674039196210700,18.633210693359374,0.65625,45.65625,-21.806251525878906
1694674039216225000,18.65322509765625,0.5250000357627869,44.47500228881836,-22.537500381469727
1694674039236232200,18.673232177734373,1.256250023841858,45.91875076293945,-22.181251525878906
1694674039256245000,18.693244873046876,0.7312500476837158,44.90625,-22.837501525878906
1694674039276250000,18.71325,1.256250023841858,45.712501525878906,-22.80000114440918
1694674039296237800,18.73323779296875,1.443750023841858,44.64375305175781,-23.231250762939453
1694674039316246300,18.753246337890626,0.9000000357627869,43.087501525878906,-24.600000381469727
1694674039336243000,18.773242919921874,1.9500000476837158,44.15625,-24.656251907348633
1694674039356248800,18.793248779296874,1.6125000715255737,42.54375076293945,-25.312501907348633
1694674039376242200,18.8132421875,3.187500238418579,43.44375228881836,-25.162500381469727
1694674039396236800,18.83323681640625,2.5500001907348633,42.28125,-25.293750762939453
1694674039416228900,18.853228759765624,3.168750047683716,43.23750305175781,-26.381250381469727
1694674039436217900,18.8732177734375,2.7375001907348633,41.88750076293945,-26.812501907348633
1694674039456222500,18.893222412109374,2.4000000953674316,40.35000228881836,-28.087501525878906
1694674039476216800,18.913216796875,4.575000286102295,40.875,-29.156251907348633
1694674039496216600,18.933216552734375,4.143750190734863,39.16875076293945,-29.400001525878906
1694674039516223700,18.9532236328125,5.662500381469727,39.03750228881836,-31.293750762939453
1694674039536225500,18.9732255859375,6.281250476837158,36.91875076293945,-31.556251525878906
1694674039556234200,18.993234130859374,9.1875,37.087501525878906,-32.51250076293945
1694674039576236800,19.01323681640625,9.787500381469727,35.38125228881836,-32.75625228881836
1694674039596234500,19.033234375,12.262500762939453,34.05000305175781,-33.5625
1694674039616239600,19.053239501953126,13.818750381469727,32.64375305175781,-33.39375305175781
1694674039636239400,19.0732392578125,14.531250953674316,30.506250381469727,-33.84375
1694674039656246300,19.093246337890626,16.5,30.412500381469727,-33.91875076293945
1694674039676239400,19.1132392578125,17.53125,28.462501525878906,-33.84375
1694674039696237800,19.13323779296875,18.5625,29.006250381469727,-34.33125305175781
1694674039716243700,19.15324365234375,18.65625,27.037500381469727,-34.48125076293945
1694674039736235500,19.173235595703126,19.70625114440918,27.318750381469727,-34.16250228881836
1694674039756226800,19.193226806640624,19.80000114440918,26.437501907348633,-34.181251525878906
1694674039776215000,19.213215087890624,18.86250114440918,25.725000381469727,-33.712501525878906
1694674039796206800,19.233206787109374,20.118751525878906,27.075000762939453,-33.86250305175781
1694674039816204800,19.253204833984373,18.975000381469727,26.437501907348633,-34.29375076293945
1694674039836206300,19.273206298828125,19.51875114440918,28.668750762939453,-33.525001525878906
1694674039856215300,19.29321533203125,18.375,28.068750381469727,-32.94375228881836
1694674039876230100,19.313230224609374,18.1875,30.187501907348633,-32.88750076293945
1694674039896237600,19.333237548828127,17.662500381469727,30.712501525878906,-32.98125076293945
1694674039916238600,19.353238525390626,15.693750381469727,30.093751907348633,-32.625
1694674039936235000,19.373235107421873,14.77500057220459,33.11250305175781,-32.15625
1694674039956239000,19.393239013671874,13.312500953674316,33.20625305175781,-31.856250762939453
1694674039976237800,19.41323779296875,13.256250381469727,36.16875076293945,-30.67500114440918
1694674039996225500,19.4332255859375,11.287500381469727,35.98125076293945,-30.20625114440918
1694674040016232200,19.453232177734375,10.575000762939453,38.400001525878906,-29.531251907348633
1694674040036232000,19.47323193359375,9.768750190734863,38.681251525878906,-28.631250381469727
1694674040056238600,19.493238525390623,8.21250057220459,41.00625228881836,-27.881250381469727
1694674040076232000,19.51323193359375,7.087500095367432,40.91250228881836,-27.506250381469727
1694674040096222700,19.53322265625,6.150000095367432,40.48125076293945,-27.11250114440918
1694674040116222500,19.553222412109374,5.137500286102295,42.63750076293945,-26.062501907348633
1694674040136208400,19.57320849609375,3.9937500953674316,41.73750305175781,-25.89375114440918
1694674040156208600,19.593208740234374,3.093750238418579,43.98750305175781,-24.937501907348633
1694674040176208400,19.61320849609375,1.725000023841858,42.993751525878906,-24.993751525878906
1694674040196204500,19.63320458984375,1.3312500715255737,44.4375,-24.543750762939453
1694674040216220400,19.653220458984375,0.7125000357627869,44.08125305175781,-24.168750762939453
1694674040236217600,19.673217529296874,-0.22500000894069672,42.65625,-24.618751525878906
1694674040256234000,19.69323388671875,0.4125000238418579,44.53125,-23.34375
1694674040276242400,19.713242431640627,-0.11250000447034836,43.01250076293945,-24.412500381469727
1694674040296233000,19.73323291015625,0.1875,44.51250076293945,-24.468751907348633
1694674040316243500,19.753243408203126,0.16875000298023224,42.900001525878906,-25.012500762939453
1694674040336240600,19.77324072265625,0.375,44.0625,-24.975000381469727
1694674040356236800,19.79323681640625,0.8062500357627869,43.181251525878906,-24.58125114440918
1694674040376233700,19.813233642578126,0.675000011920929,41.64375305175781,-25.743751525878906
1694674040396238300,19.83323828125,1.725000023841858,43.35000228881836,-25.275001525878906
1694674040416231200,19.853231201171877,0.862500011920929,41.8125,-26.45625114440918
1694674040436220700,19.873220703125,1.818750023841858,43.23750305175781,-26.08125114440918
1694674040456220400,19.893220458984374,1.4812500476837158,41.88750076293945,-26.64375114440918
1694674040476219000,19.913218994140625,2.4375,42.97500228881836,-26.493751525878906
1694674040496211200,19.933211181640626,2.418750047683716,41.79375076293945,-27.037500381469727
1694674040516220000,19.953219970703124,2.4937500953674316,39.993751525878906,-27.881250381469727
1694674040536222700,19.97322265625,4.068750381469727,40.98750305175781,-28.14375114440918
1694674040556232400,19.993232421875,4.462500095367432,39.1875,-29.006250381469727
1694674040576235800,20.01323583984375,5.381250381469727,39.97500228881836,-29.26875114440918
1694674040596234000,20.03323388671875,5.662500381469727,37.53750228881836,-31.14375114440918
1694674040616239600,20.053239501953126,7.931250095367432,37.80000305175781,-31.818750381469727
1694674040636233200,20.073233154296876,8.550000190734863,35.38125228881836,-32.36250305175781
1694674040656230400,20.09323046875,11.137500762939453,35.212501525878906,-33.150001525878906
1694674040676228400,20.113228271484374,12.562500953674316,32.625,-33.806251525878906
1694674040696230100,20.133230224609374,12.843750953674316,29.325000762939453,-34.20000076293945
1694674040716238800,20.15323876953125,15.975000381469727,29.887500762939453,-34.03125
1694674040736222700,20.17322265625,15.656250953674316,27.656251907348633,-34.51875305175781
1694674040756217900,20.1932177734375,18.037500381469727,28.631250381469727,-34.44375228881836
1694674040776210200,20.213210205078123,18.543750762939453,26.418750762939453,-34.91250228881836
1694674040796200700,20.23320068359375,18.95625114440918,26.943750381469727,-34.89375305175781
1694674040816200700,20.25320068359375,19.275001525878906,25.443750381469727,-34.81875228881836
1694674040836214800,20.27321484375,19.05000114440918,23.662500381469727,-34.98750305175781
1694674040856211500,20.29321142578125,20.006250381469727,25.087501525878906,-34.61250305175781
1694674040876227600,20.3132275390625,19.256250381469727,24.20625114440918,-34.76250076293945
1694674040896236000,20.333236083984374,19.80000114440918,26.775001525878906,-34.48125076293945
1694674040916237800,20.35323779296875,18.431251525878906,25.80000114440918,-34.61250305175781
1694674040936234800,20.37323486328125,17.73750114440918,28.537500381469727,-34.85625076293945
1694674040956239000,20.393239013671874,17.212501525878906,28.368751525878906,-34.462501525878906
1694674040976238000,20.413238037109377,14.606250762939453,27.375001907348633,-34.743751525878906
1694674040996225300,20.433225341796874,14.21250057220459,31.575000762939453,-33.806251525878906
1694674041016223000,20.453222900390625,12.656250953674316,30.562501907348633,-34.16250228881836
1694674041036218000,20.473218017578127,12.375000953674316,34.51875305175781,-32.64375305175781
1694674041056217000,20.493217041015626,11.137500762939453,34.087501525878906,-32.26875305175781
1694674041076223700,20.5132236328125,9.506250381469727,37.650001525878906,-31.087501525878906
1694674041096217600,20.533217529296873,8.68125057220459,37.125,-30.20625114440918
1694674041116221000,20.553220947265626,7.687500476837158,40.35000228881836,-28.912500381469727
1694674041136208600,20.573208740234374,7.387500286102295,40.10625076293945,-28.012500762939453
1694674041156207600,20.59320751953125,5.287500381469727,38.92500305175781,-28.687501907348633
1694674041176219600,20.6132197265625,4.706250190734863,42.35625076293945,-26.681251525878906
1694674041196213800,20.6332138671875,3.8625001907348633,40.81875228881836,-27.243751525878906
1694674041216227600,20.6532275390625,2.4375,43.51875305175781,-25.968751907348633
1694674041236223000,20.673222900390623,2.7562501430511475,42.1875,-26.212501525878906
1694674041256237800,20.69323779296875,1.9312500953674316,44.23125076293945,-25.256250381469727
1694674041276244700,20.71324462890625,1.818750023841858,43.23750305175781,-25.98750114440918
1694674041296245500,20.73324560546875,0.862500011920929,41.26875305175781,-27.075000762939453
1694674041316252700,20.753252685546876,1.40625,43.6875,-25.98750114440918
1694674041336247000,20.7732470703125,2.0062501430511475,41.4375,-27.150001525878906
1694674041356240600,20.79324072265625,2.0250000953674316,43.40625,-26.193750381469727
1694674041376235800,20.81323583984375,1.9875000715255737,41.23125076293945,-27.95625114440918
1694674041396231400,20.8332314453125,1.5937501192092896,43.125,-27.20625114440918
1694674041416224800,20.853224853515623,1.7812501192092896,41.775001525878906,-27.543750762939453
1694674041436215000,20.873215087890625,0.9375000596046448,40.3125,-29.118751525878906
1694674041456215600,20.893215576171876,1.4812500476837158,42.39375305175781,-27.525001525878906
1694674041476215800,20.9132158203125,1.8562500476837158,39.97500228881836,-29.118751525878906
1694674041496209000,20.933208984375,1.7812501192092896,41.94375228881836,-28.14375114440918
1694674041516218400,20.95321826171875,2.3625001907348633,39.41250228881836,-29.83125114440918
1694674041536221700,20.9732216796875,3.0187501907348633,40.25625228881836,-28.875001907348633
1694674041556232200,20.993232177734374,3.8062500953674316,38.08125305175781,-29.943750381469727
1694674041576235800,21.01323583984375,4.21875,38.34375,-30.431251525878906
1694674041596234200,21.033234130859373,5.662500381469727,36.65625,-31.162500381469727
1694674041616239900,21.053239990234374,5.400000095367432,33.056251525878906,-33.28125
1694674041636240100,21.073240234375,6.956250190734863,34.10625076293945,-33.54375076293945
1694674041656247000,21.0932470703125,6.712500095367432,31.312501907348633,-35.13750076293945
1694674041676240600,21.11324072265625,7.143750190734863,33.82500076293945,-34.85625076293945
1694674041696245800,21.133245849609374,8.86875057220459,30.056251525878906,-36.86250305175781
1694674041716238600,21.153238525390623,11.68125057220459,29.17500114440918,-36.431251525878906
1694674041736228600,21.173228515625,14.662500381469727,26.343751907348633,-36.67500305175781
1694674041756232400,21.193232421875,14.21250057220459,23.212501525878906,-37.89375305175781
1694674041776220400,21.213220458984374,16.012500762939453,24.937501907348633,-37.10625076293945
1694674041796220000,21.233219970703125,15.862500190734863,21.975000381469727,-38.400001525878906
1694674041816213500,21.253213623046875,16.42500114440918,24.30000114440918,-37.42500305175781
1694674041836212500,21.27321240234375,16.818750381469727,21.1875,-37.81875228881836
1694674041856219600,21.2932197265625,15.99375057220459,24.20625114440918,-37.53750228881836
1694674041876232700,21.313232666015626,15.881250381469727,23.137500762939453,-37.85625076293945
1694674041896227300,21.333227294921876,15.450000762939453,20.71875,-38.75625228881836
1694674041916230400,21.35323046875,16.012500762939453,24.843751907348633,-37.01250076293945
1694674041936228400,21.373228271484376,14.437500953674316,22.931251525878906,-38.19375228881836
1694674041956234000,21.39323388671875,13.631250381469727,27.76875114440918,-36.65625
1694674041976234200,21.413234130859376,13.631250381469727,26.343751907348633,-36.993751525878906
1694674041996230100,21.433230224609375,11.475000381469727,30.356250762939453,-35.8125
1694674042016227800,21.453227783203126,10.631250381469727,29.006250381469727,-36.65625
1694674042036228400,21.473228271484373,7.762500286102295,32.92500305175781,-35.17500305175781
1694674042056236300,21.493236328125,7.781250476837158,33.28125,-34.556251525878906
1694674042076230700,21.513230712890625,7.443750381469727,31.762500762939453,-35.71875
1694674042096222700,21.53322265625,6.993750095367432,36.712501525878906,-32.0625
1694674042116223000,21.553222900390626,5.831250190734863,35.53125,-33.618751525878906
1694674042136208000,21.573207763671874,4.237500190734863,39.243751525878906,-30.412500381469727
1694674042156203800,21.593203857421877,4.743750095367432,37.81875228881836,-30.750001907348633
1694674042176216000,21.613216064453123,2.700000047683716,40.25625228881836,-28.687501907348633
1694674042196210700,21.633210693359374,2.2875001430511475,39.88125228881836,-29.118751525878906
1694674042216225000,21.65322509765625,1.40625,38.23125076293945,-30.881250381469727
1694674042236221000,21.673220947265627,-0.1875,42.03750228881836,-27.975000381469727
1694674042256236000,21.693236083984374,0.09375,40.57500076293945,-29.325000762939453
1694674042276243700,21.71324365234375,-0.375,42.13125228881836,-27.262500762939453
1694674042296233700,21.733233642578124,0.20625001192092896,40.42500305175781,-28.51875114440918
1694674042316243700,21.75324365234375,-0.48750001192092896,41.79375076293945,-26.962501525878906
1694674042336247800,21.773247802734375,-0.09375,40.6875,-28.218751907348633
1694674042356248000,21.793248046875,0.8812500238418579,38.51250076293945,-30.67500114440918
1694674042376242000,21.813241943359376,0.01875000074505806,41.587501525878906,-28.087501525878906
1694674042396232700,21.833232666015626,1.3125,39.39375305175781,-30.656251907348633
1694674042416233500,21.8532333984375,0.01875000074505806,41.681251525878906,-27.67500114440918
1694674042436221700,21.8732216796875,1.537500023841858,39.337501525878906,-29.73750114440918
1694674042456221000,21.893220947265625,0.4125000238418579,40.51875305175781,-28.70625114440918
1694674042476216600,21.913216552734376,2.043750047683716,38.71875,-29.943750381469727
1694674042496213800,21.9332138671875,1.2375000715255737,39.95625305175781,-29.418750762939453
1694674042516210400,21.95321044921875,2.981250047683716,38.962501525878906,-30.225000381469727
1694674042536215300,21.97321533203125,3.543750047683716,35.71875,-33.13125228881836
1694674042556226800,21.993226806640624,3.5812501907348633,38.15625,-31.162500381469727
1694674042576232000,22.01323193359375,3.9562501907348633,35.23125076293945,-34.06875228881836
1694674042596231400,22.0332314453125,4.5,36.26250076293945,-32.41875076293945
1694674042616238000,22.053238037109374,5.793750286102295,33.5625,-34.38750076293945
1694674042636238800,22.07323876953125,6.637500286102295,33.39375305175781,-34.06875228881836
1694674042656246300,22.093246337890626,9.206250190734863,31.42500114440918,-35.400001525878906
1694674042676240100,22.113240234375,11.737500190734863,27.01875114440918,-38.212501525878906
1694674042696234500,22.133234375,13.143750190734863,28.856250762939453,-35.41875076293945
1694674042716230100,22.153230224609374,15.487500190734863,24.731250762939453,-37.42500305175781
1694674042736227300,22.173227294921876,16.462501525878906,25.875001907348633,-35.04375076293945
1694674042756221200,22.19322119140625,18.712501525878906,22.293750762939453,-36.54375076293945
1694674042776212500,22.21321240234375,17.587501525878906,23.625,-35.8125
1694674042796210000,22.2332099609375,18.712501525878906,21.056251525878906,-36.26250076293945
1694674042816211000,22.2532109375,19.59375,17.71875,-38.66250228881836
1694674042836205000,22.273205078125,18.39375114440918,21.693750381469727,-35.85000228881836
1694674042856214800,22.29321484375,19.40625,19.068750381469727,-38.13750076293945
1694674042876229600,22.313229736328125,17.681251525878906,22.743751525878906,-35.53125
1694674042896226000,22.33322607421875,18.48750114440918,20.4375,-36.48750305175781
1694674042916230000,22.35322998046875,15.206250190734863,24.693750381469727,-35.212501525878906
1694674042936228900,22.373228759765624,15.600000381469727,23.700000762939453,-36.337501525878906
1694674042956234800,22.39323486328125,16.89375114440918,21.600000381469727,-38.90625
1694674042976235300,22.4132353515625,13.762500762939453,26.92500114440918,-34.96875
1694674042996231200,22.433231201171875,14.343750953674316,25.087501525878906,-37.63125228881836
1694674043016227300,22.453227294921874,11.193750381469727,30.037500381469727,-33.900001525878906
1694674043036228000,22.47322802734375,12.52500057220459,29.118751525878906,-35.41875076293945
1694674043056236000,22.493236083984375,8.831250190734863,32.64375305175781,-32.34375
1694674043076238000,22.513238037109375,9.65625,32.45625305175781,-33.150001525878906
1694674043096227800,22.533227783203124,6.693750381469727,34.70625305175781,-31.218751907348633
1694674043116227300,22.553227294921875,6.993750095367432,34.96875,-31.500001907348633
1694674043136211000,22.5732109375,7.575000286102295,34.01250076293945,-34.44375228881836
1694674043156205600,22.59320556640625,4.03125,37.05000305175781,-29.36250114440918
1694674043176216300,22.61321630859375,5.325000286102295,36.54375076293945,-32.08125305175781
1694674043196210400,22.63321044921875,2.2875001430511475,37.78125,-28.162500381469727
1694674043216224500,22.653224609375,2.981250047683716,37.91250228881836,-29.662500381469727
1694674043236231700,22.673231689453125,0.20625001192092896,38.38125228881836,-28.162500381469727
1694674043256244500,22.693244384765624,0.7125000357627869,38.73750305175781,-28.668750762939453
1694674043276249600,22.71324951171875,1.818750023841858,37.95000076293945,-31.98750114440918
1694674043296237600,22.733237548828125,-0.5062500238418579,39.03750228881836,-27.356250762939453
1694674043316246300,22.753246337890626,1.1062500476837158,38.51250076293945,-30.58125114440918
1694674043336251400,22.77325146484375,-1.9687501192092896,38.66250228881836,-27.48750114440918
1694674043356241200,22.7932412109375,-0.3375000059604645,38.88750076293945,-29.681251525878906
1694674043376236000,22.813236083984375,-3.0187501907348633,37.66875076293945,-27.937501907348633
1694674043396239400,22.8332392578125,-1.7625000476837158,38.28750228881836,-28.406251907348633
1694674043416230100,22.853230224609376,-1.1062500476837158,38.19375228881836,-32.53125
1694674043436219100,22.87321923828125,-3.4125001430511475,38.64375305175781,-28.218751907348633
1694674043456218000,22.893218017578125,-1.818750023841858,38.47500228881836,-31.725000381469727
1694674043476213500,22.913213623046875,-4.575000286102295,38.08125305175781,-28.650001525878906
1694674043496208400,22.93320849609375,-2.1187500953674316,38.75625228881836,-30.712501525878906
1694674043516217900,22.9532177734375,-4.068750381469727,36.67500305175781,-28.481250762939453
1694674043536221400,22.973221435546876,-2.1937501430511475,37.63125228881836,-29.343751907348633
1694674043556231700,22.993231689453125,-3.8812501430511475,35.587501525878906,-30.01875114440918
1694674043576235300,23.0132353515625,-2.9250001907348633,37.125,-28.856250762939453
1694674043596233700,23.033233642578125,0.45000001788139343,37.3125,-32.53125
1694674043616239600,23.053239501953126,-2.71875,35.962501525878906,-28.98750114440918
1694674043636239600,23.073239501953125,-1.1062500476837158,37.3125,-32.04375076293945
1694674043656246500,23.09324658203125,-3.1500000953674316,35.41875076293945,-29.812501907348633
1694674043676241200,23.1132412109375,-1.1812500953674316,36.63750076293945,-30.975000381469727
1694674043696241200,23.1332412109375,-2.137500047683716,34.16250228881836,-30.337501525878906
1694674043716246300,23.153246337890625,-2.0062501430511475,35.66250228881836,-30.30000114440918
1694674043736234800,23.17323486328125,0.8437500596046448,36.30000305175781,-33.97500228881836
1694674043756244200,23.193244140625,-2.325000047683716,34.96875,-30.01875114440918
1694674043776239900,23.213239990234374,0.11250000447034836,36.31875228881836,-33.07500076293945
1694674043796221400,23.233221435546874,-3.168750047683716,34.14375305175781,-30.262500762939453
1694674043816217900,23.2532177734375,-0.9937500357627869,35.90625,-31.593751907348633
1694674043836209400,23.27320947265625,-3.3937501907348633,33.69375228881836,-30.975000381469727
1694674043856216300,23.29321630859375,-2.325000047683716,35.306251525878906,-30.712501525878906
1694674043876229600,23.313229736328125,-1.03125,36.73125076293945,-34.087501525878906
1694674043896224800,23.333224853515624,-3.8812501430511475,34.78125,-30.056251525878906
1694674043916228000,23.35322802734375,-1.3125,36.58125305175781,-32.587501525878906
1694674043936226600,23.3732265625,-3.6750001907348633,33.97500228881836,-30.075000762939453
1694674043956232700,23.393232666015624,-2.4375,36.26250076293945,-30.993751525878906
1694674043976233200,23.413233154296876,-4.425000190734863,33.69375228881836,-30.58125114440918
1694674043996229400,23.4332294921875,-3.9750001430511475,35.75625228881836,-29.812501907348633
1694674044016227000,23.45322705078125,-5.043750286102295,33.337501525878906,-31.106250762939453
1694674044036228000,23.47322802734375,-5.025000095367432,34.70625305175781,-29.45625114440918
1694674044056236000,23.493236083984375,-2.8687500953674316,37.743751525878906,-32.0625
1694674044076230700,23.513230712890625,-5.643750190734863,34.61250305175781,-29.26875114440918
1694674044096222000,23.533221923828126,-4.200000286102295,37.14375305175781,-31.293750762939453
1694674044116222500,23.553222412109374,-5.456250190734863,33.69375228881836,-30.618751525878906
1694674044136227800,23.573227783203127,-4.293750286102295,36.09375,-30.225000381469727
1694674044156231000,23.59323095703125,-5.568750381469727,32.79375076293945,-31.14375114440918
1694674044176230700,23.613230712890626,-5.4375,34.78125,-29.775001525878906
1694674044196220700,23.633220703125,-3.8062500953674316,37.91250228881836,-32.47500228881836
1694674044216231400,23.6532314453125,-6.187500476837158,34.21875,-30.506250381469727
1694674044236224500,23.673224609375,-4.21875,36.69375228881836,-31.51875114440918
1694674044256237800,23.69323779296875,-5.662500381469727,33.07500076293945,-30.731250762939453
1694674044276244000,23.713243896484375,-4.725000381469727,35.64375305175781,-30.431251525878906
1694674044296233000,23.73323291015625,-5.887500286102295,32.08125305175781,-31.256250381469727
1694674044316242400,23.753242431640626,-5.043750286102295,34.23750305175781,-30.48750114440918
1694674044336245800,23.773245849609374,-3.5062501430511475,37.368751525878906,-33
1694674044356236800,23.79323681640625,-5.268750190734863,33.243751525878906,-30.918750762939453
1694674044376233000,23.81323291015625,-4.425000190734863,36.86250305175781,-31.61250114440918
1694674044396237300,23.8332373046875,-6.300000190734863,33.22500228881836,-31.031251907348633
1694674044416236500,23.853236572265626,-5.756250381469727,36.69375228881836,-30.937501907348633
1694674044436224300,23.873224365234375,-6.206250190734863,32.23125076293945,-31.668750762939453
1694674044456222200,23.89322216796875,-6.281250476837158,34.837501525878906,-30.48750114440918
1694674044476236000,23.913236083984376,-5.90625,32.04375076293945,-32.587501525878906
1694674044496223500,23.933223388671873,-6.918750286102295,33.76875305175781,-30.712501525878906
1694674044516228600,23.953228515625,-4.21875,37.3125,-31.481250762939453
1694674044536228600,23.973228515625,-5.568750381469727,32.88750076293945,-30.637500762939453
1694674044556235800,23.99323583984375,-3.9000000953674316,35.73750305175781,-31.125001907348633
1694674044576237300,24.0132373046875,-5.475000381469727,31.89375114440918,-31.668750762939453
1694674044596234500,24.033234375,-4.837500095367432,34.21875,-30.881250381469727
1694674044616239400,24.0532392578125,-5.287500381469727,31.687501907348633,-32.88750076293945
1694674044636238800,24.07323876953125,-5.981250286102295,32.962501525878906,-30.937501907348633
1694674044656245500,24.09324560546875,-5.043750286102295,37.20000076293945,-32.118751525878906
1694674044676247300,24.113247314453126,-6.618750095367432,32.60625076293945,-31.368751525878906
1694674044696246000,24.13324609375,-5.868750095367432,36.16875076293945,-31.14375114440918
1694674044716249600,24.15324951171875,-6.225000381469727,31.42500114440918,-32.19375228881836
1694674044736248000,24.173248046875,-6.300000190734863,34.21875,-31.218751907348633
1694674044756235500,24.193235595703126,-6.431250095367432,31.312501907348633,-33.11250305175781
1694674044776232200,24.213232177734376,-6.618750095367432,33.03750228881836,-31.556251525878906
1694674044796215300,24.23321533203125,-5.268750190734863,37.01250076293945,-32.83125305175781
1694674044816210000,24.2532099609375,-6.731250286102295,31.80000114440918,-31.387500762939453
1694674044836206600,24.27320654296875,-6.393750190734863,35.60625076293945,-31.98750114440918
1694674044856214800,24.29321484375,-6.637500286102295,31.068750381469727,-32.60625076293945
1694674044876228900,24.313228759765625,-6.093750476837158,34.03125,-31.312501907348633
1694674044896224500,24.333224609375,-6.656250476837158,30.693750381469727,-33.13125228881836
1694674044916228400,24.353228271484376,-6.712500095367432,32.681251525878906,-31.556251525878906
1694674044936227000,24.37322705078125,-5.681250095367432,36.91875076293945,-32.64375305175781
1694674044956233200,24.393233154296876,-7.256250381469727,31.51875114440918,-32.118751525878906
1694674044976233700,24.413233642578124,-7.031250476837158,35.681251525878906,-31.98750114440918
1694674044996230000,24.43322998046875,-7.162500381469727,30.712501525878906,-32.23125076293945
1694674045016227300,24.453227294921874,-7.350000381469727,34.087501525878906,-31.931251525878906
1694674045036235300,24.4732353515625,-7.893750190734863,30.86250114440918,-33.45000076293945
1694674045056230100,24.493230224609373,-7.668750286102295,32.493751525878906,-31.98750114440918
1694674045076233500,24.5132333984375,-7.912500381469727,30.656251907348633,-34.368751525878906
1694674045096224000,24.53322412109375,-8.418750762939453,30.975000381469727,-32.64375305175781
1694674045116224800,24.553224853515626,-7.875000476837158,35.04375076293945,-32.625
1694674045136221200,24.57322119140625,-8.737500190734863,29.700000762939453,-33.48750305175781
1694674045156217900,24.5932177734375,-8.287500381469727,33.712501525878906,-32.36250305175781
1694674045176208100,24.6132080078125,-8.756250381469727,30.225000381469727,-33.88125228881836
1694674045196203800,24.633203857421876,-7.668750286102295,32.400001525878906,-32.19375228881836
1694674045216219400,24.653219482421875,-8.850000381469727,30.656251907348633,-34.16250228881836
1694674045236216600,24.673216552734374,-9.15000057220459,30.86250114440918,-33.26250076293945
1694674045256233000,24.69323291015625,-8.90625,35.400001525878906,-32.51250076293945
1694674045276241700,24.71324169921875,-9.881250381469727,30.150001525878906,-33.28125
1694674045296243500,24.733243408203126,-9.543750762939453,34.14375305175781,-32.66250228881836
1694674045316251400,24.75325146484375,-8.737500190734863,30.056251525878906,-33.67500305175781
1694674045336253000,24.7732529296875,-9.975000381469727,32.19375228881836,-32.83125305175781
1694674045356243200,24.7932431640625,-9.99375057220459,29.943750381469727,-34.40625
1694674045376237600,24.813237548828123,-10.706250190734863,30.86250114440918,-32.587501525878906
1694674045396240600,24.83324072265625,-10.256250381469727,34.96875,-32.34375
1694674045416231400,24.8532314453125,-11.4375,30.76875114440918,-33.09375
1694674045436220000,24.873219970703126,-10.78125,33.69375228881836,-32.79375076293945
1694674045456218400,24.89321826171875,-10.612500190734863,29.700000762939453,-33.41250228881836
1694674045476225500,24.9132255859375,-11.30625057220459,32.212501525878906,-32.25
1694674045496216600,24.933216552734375,-10.93125057220459,30.48750114440918,-34.10625076293945
1694674045516222200,24.95322216796875,-11.4375,31.125001907348633,-32.98125076293945
1694674045536224300,24.973224365234376,-11.137500762939453,30.656251907348633,-33.69375228881836
1694674045556233200,24.993233154296874,-11.53125,29.962501525878906,-33.01875305175781
1694674045576236000,25.013236083984374,-11.925000190734863,33.712501525878906,-32.212501525878906
1694674045596234000,25.03323388671875,-11.53125,30.131250381469727,-33.22500228881836
1694674045616239400,25.0532392578125,-11.71875,33,-32.32500076293945
1694674045636231700,25.073231689453124,-12.187500953674316,30.562501907348633,-33.91875076293945
1694674045656228900,25.093228759765626,-12.562500953674316,32.025001525878906,-32.56875228881836
1694674045676234800,25.11323486328125,-12.168750762939453,31.556251525878906,-33.58125305175781
1694674045696227300,25.133227294921873,-11.943750381469727,31.218751907348633,-32.587501525878906
1694674045716225000,25.15322509765625,-12.131250381469727,34.51875305175781,-31.89375114440918
1694674045736230400,25.17323046875,-11.943750381469727,30.150001525878906,-32.625
1694674045756231000,25.19323095703125,-12.33750057220459,33.26250076293945,-32.025001525878906
1694674045776231000,25.21323095703125,-12.168750762939453,31.125001907348633,-32.98125076293945
1694674045796215800,25.2332158203125,-12.656250953674316,32.56875228881836,-32.25
1694674045816213200,25.253213134765623,-11.831250190734863,32.19375228881836,-32.962501525878906
1694674045836216800,25.273216796875,-12.768750190734863,31.668750762939453,-32.17500305175781
1694674045856223200,25.29322314453125,-12.731250762939453,35.41875076293945,-31.162500381469727
1694674045876235500,25.313235595703127,-13.27500057220459,31.575000762939453,-31.98750114440918
1694674045896241000,25.333240966796875,-13.143750190734863,34.80000305175781,-31.087501525878906
1694674045916240600,25.35324072265625,-12.768750190734863,32.118751525878906,-32.0625
1694674045936235800,25.37323583984375,-12.843750953674316,33.993751525878906,-31.218751907348633
1694674045956239000,25.393239013671874,-12.33750057220459,33.26250076293945,-32.025001525878906
1694674045976237300,25.4132373046875,-13.068750381469727,33.20625305175781,-31.33125114440918
1694674045996231700,25.433231689453127,-12.71250057220459,36.95625305175781,-30.318750381469727
1694674046016227000,25.45322705078125,-12.750000953674316,32.75625228881836,-31.33125114440918
1694674046036223000,25.473222900390624,-12.71250057220459,35.98125076293945,-29.73750114440918
1694674046056220400,25.493220458984375,-12.543750762939453,33.375,-31.312501907348633
1694674046076226000,25.51322607421875,-12.825000762939453,35.70000076293945,-30.656251907348633
1694674046096218600,25.533218505859374,-11.700000762939453,34.181251525878906,-31.087501525878906
1694674046116221400,25.553221435546874,-11.58750057220459,34.556251525878906,-30.562501907348633
1694674046136210200,25.573210205078126,-10.65000057220459,34.743751525878906,-30.450000762939453
1694674046156209400,25.59320947265625,-11.381250381469727,34.72500228881836,-30.562501907348633
1694674046176201700,25.61320166015625,-11.456250190734863,37.42500305175781,-29.587501525878906
1694674046196200000,25.633199951171875,-11.68125057220459,34.81875228881836,-30.656251907348633
1694674046216217300,25.65321728515625,-11.981250762939453,37.14375305175781,-30.093751907348633
1694674046236227000,25.67322705078125,-11.49375057220459,35.0625,-31.068750381469727
1694674046256241400,25.693241455078127,-10.950000762939453,35.90625,-30.11250114440918
1694674046276248000,25.713248046875,-10.21875,36.337501525878906,-30.506250381469727
1694674046296237000,25.733237060546877,-11.0625,35.60625076293945,-30.825000762939453
1694674046316246500,25.75324658203125,-9.99375057220459,38.66250228881836,-29.718751907348633
1694674046336249000,25.7732490234375,-10.125,35.34375,-30.825000762939453
1694674046356241000,25.793240966796876,-9.99375057220459,37.76250076293945,-29.943750381469727
1694674046376245000,25.813244873046877,-9.28125,35.53125,-30.506250381469727
1694674046396235300,25.8332353515625,-9.28125,36.69375228881836,-30.168750762939453
1694674046416234800,25.85323486328125,-8.96250057220459,36.88125228881836,-29.868751525878906
1694674046436222700,25.87322265625,-9.375,37.06875228881836,-30.168750762939453
1694674046456220700,25.893220703125,-8.325000762939453,37.78125,-29.212501525878906
1694674046476221200,25.91322119140625,-9.075000762939453,36.88125228881836,-29.662500381469727
1694674046496212700,25.933212646484375,-8.831250190734863,39.056251525878906,-28.781251907348633
1694674046516215000,25.953215087890626,-8.756250381469727,37.25625228881836,-29.64375114440918
1694674046536218600,25.973218505859375,-9.375,38.32500076293945,-29.512500762939453
1694674046556229400,25.9932294921875,-7.912500381469727,38.0625,-29.418750762939453
1694674046576233500,26.0132333984375,-8.4375,37.875,-29.625001907348633
1694674046596232400,26.033232421875,-6.543750286102295,38.34375,-28.762500762939453
1694674046616238600,26.053238525390626,-7.706250190734863,37.44375228881836,-29.325000762939453
1694674046636227600,26.0732275390625,-7.687500476837158,39.31875228881836,-28.856250762939453
1694674046656237300,26.0932373046875,-7.293750286102295,37.44375228881836,-29.006250381469727
1694674046676241000,26.113240966796877,-8.006250381469727,38.88750076293945,-28.575000762939453
1694674046696232700,26.133232666015626,-7.275000095367432,38.15625,-28.89375114440918
1694674046716228900,26.153228759765625,-7.893750190734863,39.03750228881836,-28.968751907348633
1694674046736228600,26.173228515625,-6.731250286102295,39.525001525878906,-27.431251525878906
1694674046756221700,26.1932216796875,-8.21250057220459,38.79375076293945,-28.387500762939453
1694674046776223700,26.2132236328125,-8.287500381469727,40.875,-26.718751907348633
1694674046796210000,26.2332099609375,-7.987500190734863,39.243751525878906,-27.76875114440918
1694674046816207000,26.25320703125,-8.8125,40.57500076293945,-27.731250762939453
1694674046836201700,26.27320166015625,-8.30625057220459,39.69375228881836,-27.843751907348633
1694674046856212000,26.2932119140625,-9.037500381469727,39.86250305175781,-27.86250114440918
1694674046876227800,26.313227783203125,-7.031250476837158,39.97500228881836,-27.01875114440918
1694674046896235800,26.33323583984375,-8.606250762939453,39.618751525878906,-27.562501907348633
1694674046916237600,26.353237548828126,-8.475000381469727,41.04375076293945,-26.718751907348633
1694674046936234500,26.373234375,-8.081250190734863,39.431251525878906,-27.543750762939453
1694674046956238800,26.39323876953125,-7.968750476837158,40.76250076293945,-27.318750381469727
1694674046976237800,26.41323779296875,-8.40000057220459,39.95625305175781,-27.843751907348633
1694674046996232700,26.433232666015623,-8.71875,40.40625,-27.731250762939453
1694674047016235500,26.453235595703124,-7.237500190734863,40.087501525878906,-26.606250762939453
1694674047036230000,26.47322998046875,-8.606250762939453,40.23750305175781,-27.543750762939453
1694674047056225500,26.4932255859375,-6.806250095367432,40.89375305175781,-26.08125114440918
1694674047076229400,26.5132294921875,-7.875000476837158,40.59375,-27.318750381469727
1694674047096228900,26.533228759765624,-7.743750095367432,41.32500076293945,-26.493751525878906
1694674047116227800,26.553227783203123,-7.668750286102295,40.42500305175781,-27.318750381469727
1694674047136212500,26.57321240234375,-8.287500381469727,41.212501525878906,-27.30000114440918
1694674047156207000,26.59320703125,-6.937500476837158,40.96875,-26.887500762939453
1694674047176211700,26.613211669921874,-8.287500381469727,40.76250076293945,-27.412500381469727
