time,seconds_elapsed,z,y,x
1697619937563017700,0.080017822265625,-28.462501525878906,-38.71875,18.11250114440918
1697619937583022000,0.10002197265625,-29.83125114440918,-38.73750305175781,18.09375
1697619937603034000,0.1200341796875,-28.687501907348633,-38.8125,17.90625
1697619937623060700,0.140060791015625,-28.89375114440918,-38.45625305175781,17.8125
1697619937643089400,0.16008935546875,-29.212501525878906,-38.28750228881836,17.71875
1697619937663123700,0.180123779296875,-29.73750114440918,-38.83125305175781,17.587501525878906
1697619937683158500,0.200158447265625,-29.193750381469727,-38.45625305175781,17.8125
1697619937703173000,0.220173095703125,-28.575000762939453,-38.98125076293945,18.01875114440918
1697619937723183900,0.240183837890625,-30.356250762939453,-39.09375,17.775001525878906
1697619937743185000,0.260184814453125,-29.100000381469727,-38.73750305175781,18.01875114440918
1697619937763190300,0.280190185546875,-28.256250381469727,-38.71875,18.318750381469727
1697619937783188500,0.3001884765625,-28.687501907348633,-39.07500076293945,17.793750762939453
1697619937803191800,0.32019189453125,-30.975000381469727,-38.118751525878906,18
1697619937823189200,0.340189208984375,-28.593751907348633,-39.1875,17.193750381469727
1697619937843181800,0.360181884765625,-30.76875114440918,-38.83125305175781,17.775001525878906
1697619937863182300,0.380182373046875,-29.212501525878906,-39.09375,17.681251525878906
1697619937883178500,0.400178466796875,-28.89375114440918,-38.98125076293945,18
1697619937903164000,0.420163818359375,-28.781251907348633,-39.07500076293945,17.793750762939453
1697619937923166500,0.44016650390625,-27.337501525878906,-39.50625228881836,18.712501525878906
1697619937943164700,0.46016455078125,-26.906251907348633,-40.03125,18.806251525878906
1697619937963171000,0.480171142578125,-25.462501525878906,-40.462501525878906,18.825000762939453
1697619937983171800,0.500171875,-25.443750381469727,-41.0625,19.3125
1697619938003179500,0.520179443359375,-24.431251525878906,-41.36250305175781,17.793750762939453
1697619938023181800,0.540181884765625,-24.225000381469727,-41.8125,17.793750762939453
1697619938043178800,0.5601787109375,-23.100000381469727,-42.712501525878906,17.26875114440918
1697619938063183400,0.580183349609375,-23.83125114440918,-42.525001525878906,17.36250114440918
1697619938083182800,0.600182861328125,-22.80000114440918,-42.91875076293945,16.368751525878906
1697619938103170600,0.620170654296875,-24.150001525878906,-42.82500076293945,16.443750381469727
1697619938123176000,0.640176025390625,-24.656251907348633,-42.88125228881836,17.45625114440918
1697619938143165000,0.6601650390625,-24.543750762939453,-42.26250076293945,17.475000381469727
1697619938163163600,0.68016357421875,-24.95625114440918,-42.431251525878906,17.962501525878906
1697619938183163400,0.700163330078125,-25.481250762939453,-41.64375305175781,17.568750381469727
1697619938203158500,0.720158447265625,-25.781251907348633,-41.56875228881836,17.568750381469727
1697619938223174000,0.740173828125,-26.625001907348633,-41.400001525878906,17.15625
1697619938243159000,0.760158935546875,-25.593751907348633,-41.47500228881836,17.26875114440918
1697619938263162400,0.780162353515625,-25.781251907348633,-41.64375305175781,17.568750381469727
1697619938283172000,0.800172119140625,-26.306251525878906,-41.306251525878906,17.568750381469727
1697619938303169000,0.8201689453125,-26.418750762939453,-41.38125228881836,17.568750381469727
1697619938323169300,0.840169189453125,-27.056251525878906,-41.868751525878906,16.33125114440918
1697619938343165200,0.860165283203125,-26.231250762939453,-41.88750076293945,15.637500762939453
1697619938363169300,0.880169189453125,-26.343751907348633,-42.86250305175781,15.412500381469727
1697619938383168800,0.900168701171875,-25.631250381469727,-43.05000305175781,14.906250953674316
1697619938403175400,0.920175537109375,-25.443750381469727,-43.14375305175781,14.100000381469727
1697619938423176200,0.94017626953125,-26.062501907348633,-43.80000305175781,13.36875057220459
1697619938443172400,0.96017236328125,-26.08125114440918,-43.462501525878906,12.675000190734863
1697619938463177000,0.980177001953125,-27.037500381469727,-43.743751525878906,11.831250190734863
1697619938483176400,1.000176513671875,-27.056251525878906,-43.875,10.3125
1697619938503164000,1.020163818359375,-27.825000762939453,-44.64375305175781,8.362500190734863
1697619938523157500,1.040157470703125,-27.637500762939453,-45.375,6.937500476837158
1697619938543149000,1.060149169921875,-26.962501525878906,-46.01250076293945,2.4937500953674316
1697619938563161600,1.08016162109375,-27.01875114440918,-46.368751525878906,-0.4312500059604645
1697619938583167500,1.10016748046875,-26.55000114440918,-46.78125,-3.562500238418579
1697619938603168000,1.12016796875,-27.243751525878906,-46.29375076293945,-8.512500762939453
1697619938623175400,1.140175537109375,-26.568750381469727,-45.50625228881836,-12.318750381469727
1697619938643165700,1.160165771484375,-27.281251907348633,-43.01250076293945,-19.106250762939453
1697619938663165200,1.180165283203125,-26.700000762939453,-41.94375228881836,-22.818750381469727
1697619938683172000,1.200172119140625,-24.58125114440918,-39.86250305175781,-28.275001525878906
1697619938703166000,1.220166015625,-22.875,-36.95625305175781,-33.01875305175781
1697619938723175700,1.24017578125,-22.462501525878906,-35.64375305175781,-33.86250305175781
1697619938743160600,1.26016064453125,-20.55000114440918,-31.856250762939453,-38.681251525878906
1697619938763155700,1.28015576171875,-18.375,-29.137500762939453,-40.48125076293945
1697619938783163000,1.300162841796875,-14.68125057220459,-25.856250762939453,-44.47500228881836
1697619938803169000,1.3201689453125,-10.21875,-23.64375114440918,-45.76875305175781
1697619938823169800,1.340169677734375,-3.9750001430511475,-21.337501525878906,-46.72500228881836
1697619938843158800,1.36015869140625,-1.3875000476837158,-20.118751525878906,-47.45625305175781
1697619938863158000,1.380157958984375,0.26250001788139343,-18.150001525878906,-47.587501525878906
1697619938883157200,1.4001572265625,-0.75,-15.33750057220459,-48.11250305175781
1697619938903148000,1.42014794921875,4.237500190734863,-14.58750057220459,-47.625
1697619938923149600,1.440149658203125,6.318750381469727,-13.518750190734863,-47.56875228881836
1697619938943153400,1.4601533203125,8.925000190734863,-13.143750190734863,-47.306251525878906
1697619938963164200,1.4801640625,12.05625057220459,-12.300000190734863,-46.33125305175781
1697619938983168500,1.50016845703125,13.518750190734863,-12.112500190734863,-46.51875305175781
1697619939003178800,1.5201787109375,18.131250381469727,-13.443750381469727,-43.66875076293945
1697619939023182300,1.540182373046875,19.068750381469727,-13.593750953674316,-42.73125076293945
1697619939043169000,1.5601689453125,21.056251525878906,-13.331250190734863,-42.69375228881836
1697619939063177000,1.580177001953125,21.375,-12.506250381469727,-42.07500076293945
1697619939083178800,1.6001787109375,25.05000114440918,-12.693750381469727,-39.806251525878906
1697619939103169000,1.6201689453125,22.743751525878906,-11.4375,-41.8125
1697619939123164000,1.640163818359375,24.093751907348633,-11.15625,-41.28750228881836
1697619939143156000,1.660156005859375,24.825000762939453,-10.331250190734863,-40.95000076293945
1697619939163157800,1.68015771484375,24.412500381469727,-9.99375057220459,-41.34375
1697619939183155000,1.700155029296875,24.093751907348633,-9.393750190734863,-41.73750305175781
1697619939203160600,1.72016064453125,23.043750762939453,-8.625,-42.73125076293945
1697619939223172400,1.74017236328125,22.33125114440918,-7.725000381469727,-42.73125076293945
1697619939243166000,1.760166015625,20.868751525878906,-7.668750286102295,-43.14375305175781
1697619939263168300,1.780168212890625,20.53125,-7.856250286102295,-43.96875
1697619939283177000,1.800177001953125,20.34375,-7.406250476837158,-43.85625076293945
1697619939303172000,1.820172119140625,19.59375,-7.612500190734863,-44.38125228881836
1697619939323171300,1.84017138671875,19.59375,-8.137500762939453,-44.08125305175781
1697619939343166700,1.860166748046875,19.5,-8.643750190734863,-43.59375
1697619939363170300,1.88017041015625,20.868751525878906,-9.262500762939453,-43.20000076293945
1697619939383169000,1.9001689453125,22.3125,-9.412500381469727,-42.5625
1697619939403175400,1.920175537109375,23.587501525878906,-9.5625,-41.75625228881836
1697619939423169500,1.94016943359375,22.537500381469727,-9.65625,-41.56875228881836
1697619939443167700,1.960167724609375,24.937501907348633,-9.637500762939453,-41.23125076293945
1697619939463173400,1.98017333984375,25.14375114440918,-9.262500762939453,-41.025001525878906
1697619939483174000,2.000173828125,25.368751525878906,-8.643750190734863,-40.78125
1697619939503162000,2.020162109375,25.256250381469727,-8.475000381469727,-40.78125
1697619939523160600,2.04016064453125,25.462501525878906,-8.831250190734863,-41.10000228881836
1697619939543145000,2.06014501953125,25.575000762939453,-9.1875,-40.70625305175781
1697619939563151600,2.080151611328125,25.687501907348633,-9.52500057220459,-40.51875305175781
1697619939583156000,2.100156005859375,24.637500762939453,-9.28125,-41.025001525878906
1697619939603159600,2.12015966796875,25.256250381469727,-9.09375,-41.306251525878906
1697619939623170300,2.14017041015625,25.031251907348633,-9.46875,-41.32500076293945
1697619939643162600,2.16016259765625,25.256250381469727,-9.375,-41.32500076293945
1697619939663175000,2.1801748046875,24.637500762939453,-9.262500762939453,-40.81875228881836
1697619939683180300,2.20018017578125,25.462501525878906,-9.356250762939453,-41.00625228881836
1697619939703172400,2.22017236328125,24.731250762939453,-9.450000762939453,-40.931251525878906
1697619939723169500,2.24016943359375,25.031251907348633,-9.637500762939453,-41.13750076293945
1697619939743163100,2.2601630859375,22.856250762939453,-9.99375057220459,-41.26875305175781
1697619939763154000,2.28015380859375,24.093751907348633,-10.443750381469727,-41.66250228881836
1697619939783154400,2.300154541015625,23.775001525878906,-10.987500190734863,-41.79375076293945
1697619939803151000,2.320151123046875,23.15625,-10.818750381469727,-41.90625
1697619939823156000,2.340156005859375,22.931251525878906,-11.175000190734863,-41.90625
1697619939843156200,2.36015625,22.743751525878906,-11.96250057220459,-41.73750305175781
1697619939863163600,2.38016357421875,22.743751525878906,-12.05625057220459,-41.73750305175781
1697619939883165400,2.40016552734375,23.568750381469727,-11.418750762939453,-41.493751525878906
1697619939903156000,2.420156005859375,23.587501525878906,-11.0625,-41.493751525878906
1697619939923162400,2.440162353515625,24.093751907348633,-10.55625057220459,-41.98125076293945
1697619939943155700,2.46015576171875,23.981250762939453,-10.893750190734863,-42.09375
1697619939963154400,2.480154541015625,23.887500762939453,-11.325000762939453,-41.60625076293945
1697619939983160600,2.50016064453125,24.731250762939453,-11.475000381469727,-40.57500076293945
1697619940003172600,2.520172607421875,26.193750381469727,-12.075000762939453,-39.67500305175781
1697619940023177500,2.540177490234375,26.306251525878906,-12.15000057220459,-39.16875076293945
1697619940043177000,2.560177001953125,26.92500114440918,-12.33750057220459,-39.35625076293945
1697619940063183400,2.580183349609375,25.875001907348633,-12.24375057220459,-39.67500305175781
1697619940083183600,2.60018359375,26.418750762939453,-12.412500381469727,-39.26250076293945
1697619940103172000,2.620172119140625,26.625001907348633,-11.887500762939453,-39.35625076293945
1697619940123177700,2.640177734375,26.606250762939453,-12.168750762939453,-39.46875
1697619940143169800,2.660169677734375,26.512500762939453,-11.793750762939453,-39.35625076293945
1697619940163160000,2.68016015625,26.08125114440918,-12.33750057220459,-39.67500305175781
1697619940183148500,2.7001484375,26.718751907348633,-12.24375057220459,-39.67500305175781
1697619940203147300,2.720147216796875,26.306251525878906,-11.793750762939453,-39.243751525878906
1697619940223166000,2.740166015625,26.100000381469727,-12.412500381469727,-38.868751525878906
1697619940243153700,2.760153564453125,27.037500381469727,-11.700000762939453,-39.03750228881836
1697619940263159300,2.7801591796875,27.450000762939453,-11.96250057220459,-38.94375228881836
1697619940283159800,2.800159912109375,27.037500381469727,-11.96250057220459,-38.94375228881836
1697619940303159800,2.820159912109375,26.418750762939453,-11.887500762939453,-39.35625076293945
1697619940323163100,2.8401630859375,27.787500381469727,-11.86875057220459,-38.23125076293945
1697619940343161600,2.86016162109375,26.943750381469727,-11.793750762939453,-38.94375228881836
1697619940363167500,2.88016748046875,27.150001525878906,-11.4375,-38.73750305175781
1697619940383168000,2.90016796875,26.625001907348633,-11.34375,-38.92500305175781
1697619940403175200,2.920175048828125,26.812501907348633,-11.456250190734863,-39.54375076293945
1697619940423176700,2.9401767578125,24.95625114440918,-11.006250381469727,-39.35625076293945
1697619940443173400,2.96017333984375,26.83125114440918,-11.081250190734863,-39.22500228881836
1697619940463177700,2.980177734375,27.67500114440918,-11.4375,-38.8125
1697619940483177000,3.000177001953125,27.562501907348633,-11.15625,-38.92500305175781
1697619940503164400,3.020164306640625,27.76875114440918,-10.631250381469727,-39.09375
1697619940523169500,3.04016943359375,27.468751907348633,-10.818750381469727,-39.20625305175781
1697619940543158000,3.060157958984375,26.83125114440918,-11.081250190734863,-38.8125
1697619940563168000,3.08016796875,27.656251907348633,-11.081250190734863,-39.11250305175781
1697619940583172000,3.100172119140625,27.356250762939453,-10.706250190734863,-38.60625076293945
1697619940603170800,3.1201708984375,27.468751907348633,-10.46250057220459,-39.09375
1697619940623177200,3.14017724609375,27.262500762939453,-10.18125057220459,-38.587501525878906
1697619940643166700,3.160166748046875,27.881250381469727,-10.443750381469727,-38.79375076293945
1697619940663165400,3.18016552734375,27.468751907348633,-10.18125057220459,-38.681251525878906
1697619940683172000,3.200172119140625,27.67500114440918,-9.918750762939453,-38.98125076293945
1697619940703165700,3.220165771484375,27.58125114440918,-9.356250762939453,-37.650001525878906
1697619940723175400,3.240175537109375,28.406251907348633,-10.08750057220459,-38.775001525878906
1697619940743178800,3.2601787109375,28.931251525878906,-10.162500381469727,-38.45625305175781
1697619940763171000,3.280171142578125,28.106250762939453,-9.731250762939453,-38.36250305175781
1697619940783174100,3.300174072265625,28.500001907348633,-10.18125057220459,-38.868751525878906
1697619940803177000,3.320177001953125,28.931251525878906,-9.881250381469727,-37.95000076293945
1697619940823167200,3.340167236328125,28.087501525878906,-10.256250381469727,-38.38125228881836
1697619940843156500,3.360156494140625,29.025001525878906,-9.543750762939453,-38.55000305175781
1697619940863155500,3.380155517578125,28.200000762939453,-9.375,-38.64375305175781
1697619940883157000,3.400156982421875,28.293750762939453,-9.375,-38.75625228881836
1697619940903160000,3.42016015625,28.912500381469727,-9.46875,-38.85000228881836
1697619940923159300,3.4401591796875,28.931251525878906,-9.637500762939453,-38.64375305175781
1697619940943149000,3.460149169921875,28.725000381469727,-9.637500762939453,-38.45625305175781
1697619940963160600,3.48016064453125,29.231250762939453,-9.018750190734863,-38.73750305175781
1697619940983165400,3.50016552734375,29.137500762939453,-8.925000190734863,-38.118751525878906
1697619941003176000,3.520176025390625,29.156251907348633,-9.09375,-37.931251525878906
1697619941023179800,3.5401796875,29.887500762939453,-9.168750762939453,-37.72500228881836
1697619941043167000,3.5601669921875,29.343751907348633,-8.925000190734863,-38.41875076293945
1697619941063175200,3.580175048828125,30.075000762939453,-9.262500762939453,-38.025001525878906
1697619941083177500,3.600177490234375,29.981250762939453,-8.90625,-37.91250228881836
1697619941103167500,3.62016748046875,30.600000381469727,-9.33750057220459,-37.61250305175781
1697619941123174400,3.64017431640625,30.506250381469727,-8.90625,-37.59375
1697619941143164200,3.6601640625,29.36250114440918,-8.8125,-37.51875305175781
1697619941163163600,3.68016357421875,30.20625114440918,-8.8125,-37.40625
1697619941183170600,3.700170654296875,30.20625114440918,-8.8125,-37.40625
1697619941203172000,3.720172119140625,30.712501525878906,-8.737500190734863,-37.89375305175781
1697619941223180500,3.7401806640625,29.775001525878906,-8.456250190734863,-37.5
1697619941243171300,3.76017138671875,30.39375114440918,-8.287500381469727,-37.57500076293945
1697619941263171300,3.78017138671875,29.681251525878906,-8.456250190734863,-37.5
1697619941283178500,3.800178466796875,30.937501907348633,-8.175000190734863,-37.275001525878906
1697619941303174400,3.82017431640625,30.20625114440918,-8.081250190734863,-36.76875305175781
1697619941323172600,3.840172607421875,30.506250381469727,-7.575000286102295,-37.76250076293945
1697619941343167000,3.8601669921875,30.412500381469727,-7.650000095367432,-37.368751525878906
1697619941363170000,3.880170166015625,30.712501525878906,-7.387500286102295,-37.44375228881836
1697619941383168500,3.90016845703125,30.412500381469727,-7.293750286102295,-37.35000228881836
1697619941403174400,3.92017431640625,31.031251907348633,-7.031250476837158,-37.53750228881836
1697619941423167500,3.94016748046875,30.39375114440918,-6.862500190734863,-38.04375076293945
1697619941443161600,3.96016162109375,30.20625114440918,-6.600000381469727,-37.931251525878906
1697619941463168800,3.980168701171875,29.981250762939453,-6.506250381469727,-37.837501525878906
1697619941483170300,4.00017041015625,30.712501525878906,-6.412500381469727,-37.931251525878906
1697619941503168000,4.02016796875,30.11250114440918,-6.225000381469727,-37.23750305175781
1697619941523165200,4.040165283203125,30.937501907348633,-6.168750286102295,-38.025001525878906
1697619941543152600,4.060152587890625,30.093751907348633,-5.550000190734863,-38.212501525878906
1697619941563149800,4.08014990234375,30.506250381469727,-5.90625,-38.212501525878906
1697619941583153000,4.10015283203125,29.26875114440918,-6.075000286102295,-38.23125076293945
1697619941603157200,4.1201572265625,30.412500381469727,-6.243750095367432,-37.837501525878906
1697619941623157000,4.140156982421875,30.30000114440918,-5.981250286102295,-38.118751525878906
1697619941643152400,4.16015234375,30.30000114440918,-5.737500190734863,-38.625
1697619941663156200,4.18015625,30.918750762939453,-5.362500190734863,-38.400001525878906
1697619941683166500,4.20016650390625,30.318750381469727,-5.71875,-38.025001525878906
1697619941703163000,4.220162841796875,30.30000114440918,-6.075000286102295,-37.91250228881836
1697619941723174700,4.240174560546875,30.618751525878906,-6.243750095367432,-38.23125076293945
1697619941743168000,4.26016796875,29.681251525878906,-5.737500190734863,-38.4375
1697619941763169800,4.280169677734375,29.981250762939453,-5.456250190734863,-38.32500076293945
1697619941783178200,4.30017822265625,30.093751907348633,-5.362500190734863,-38.118751525878906
1697619941803180500,4.3201806640625,29.568750381469727,-5.475000381469727,-38.51250076293945
1697619941823177700,4.340177734375,30.20625114440918,-5.193750381469727,-38.00625228881836
1697619941843171000,4.360171142578125,30.093751907348633,-5.643750190734863,-38.32500076293945
1697619941863173000,4.380173095703125,29.887500762939453,-5.737500190734863,-38.32500076293945
1697619941883170800,4.4001708984375,30.093751907348633,-5.193750381469727,-38.306251525878906
1697619941903157200,4.4201572265625,29.26875114440918,-5.287500381469727,-38.212501525878906
1697619941923161900,4.440161865234375,30.412500381469727,-5.100000381469727,-38.306251525878906
1697619941943161600,4.46016162109375,29.568750381469727,-5.475000381469727,-38.41875076293945
1697619941963168800,4.480168701171875,29.775001525878906,-5.550000190734863,-38.41875076293945
1697619941983170600,4.500170654296875,30.412500381469727,-5.287500381469727,-38.10000228881836
1697619942003179000,4.520178955078125,29.793750762939453,-5.100000381469727,-38.212501525878906
1697619942023181300,4.540181396484375,29.681251525878906,-5.025000095367432,-38.306251525878906
1697619942043178800,4.5601787109375,30.506250381469727,-5.287500381469727,-38.10000228881836
1697619942063183600,4.58018359375,29.793750762939453,-5.100000381469727,-38.00625228881836
1697619942083184400,4.600184326171875,30.20625114440918,-5.081250190734863,-37.70625305175781
1697619942103173600,4.620173583984375,30.20625114440918,-5.456250190734863,-38.41875076293945
1697619942123178200,4.64017822265625,30.412500381469727,-5.193750381469727,-38.400001525878906
1697619942143166700,4.660166748046875,29.887500762939453,-5.118750095367432,-38.306251525878906
1697619942163157800,4.68015771484375,30.618751525878906,-5.456250190734863,-38.41875076293945
1697619942183146500,4.700146484375,29.568750381469727,-5.737500190734863,-38.32500076293945
1697619942203146500,4.720146484375,30.20625114440918,-5.625,-38.212501525878906
1697619942223145500,4.7401455078125,29.156251907348633,-5.90625,-38.23125076293945
1697619942243138000,4.760137939453125,29.775001525878906,-5.737500190734863,-38.625
1697619942263147800,4.780147705078125,29.043750762939453,-5.737500190734863,-38.73750305175781
1697619942283163000,4.800162841796875,29.45625114440918,-5.925000190734863,-39.03750228881836
1697619942303163100,4.8201630859375,29.662500381469727,-6.281250476837158,-38.94375228881836
1697619942323166200,4.840166259765625,29.868751525878906,-5.756250381469727,-39.03750228881836
1697619942343164400,4.860164306640625,28.837501525878906,-5.831250190734863,-38.85000228881836
1697619942363170000,4.880170166015625,29.250001907348633,-5.662500381469727,-38.94375228881836
1697619942383170000,4.900170166015625,28.51875114440918,-5.493750095367432,-39.03750228881836
1697619942403177200,4.92017724609375,29.156251907348633,-5.925000190734863,-38.94375228881836
1697619942423178000,4.940177978515625,28.837501525878906,-5.90625,-38.55000305175781
1697619942443174100,4.960174072265625,29.45625114440918,-5.568750381469727,-38.83125305175781
1697619942463178200,4.98017822265625,29.156251907348633,-5.400000095367432,-39.13125228881836
1697619942483177200,5.00017724609375,30.093751907348633,-5.025000095367432,-38.400001525878906
1697619942503165400,5.02016552734375,29.043750762939453,-5.306250095367432,-38.73750305175781
1697619942523170300,5.04017041015625,29.681251525878906,-4.931250095367432,-38.51250076293945
1697619942543158500,5.060158447265625,28.42500114440918,-5.025000095367432,-38.32500076293945
1697619942563168300,5.080168212890625,30.506250381469727,-5.193750381469727,-38.493751525878906
1697619942583172000,5.100172119140625,29.981250762939453,-5.625,-38.118751525878906
1697619942603170800,5.1201708984375,30.318750381469727,-5.362500190734863,-38.00625228881836
1697619942623177200,5.14017724609375,29.981250762939453,-5.456250190734863,-38.32500076293945
1697619942643166500,5.16016650390625,29.568750381469727,-5.025000095367432,-38.8125
1697619942663165400,5.18016552734375,29.887500762939453,-5.381250381469727,-38.92500305175781
1697619942683171800,5.200171875,30.093751907348633,-5.456250190734863,-38.118751525878906
1697619942703165400,5.22016552734375,30.30000114440918,-5.362500190734863,-38.41875076293945
1697619942723175200,5.240175048828125,30.39375114440918,-5.643750190734863,-38.71875
1697619942743170600,5.260170654296875,29.26875114440918,-5.737500190734863,-38.13750076293945
1697619942763165700,5.280165771484375,30.093751907348633,-5.71875,-37.91250228881836
1697619942783181600,5.300181640625,30.20625114440918,-5.8125,-38.212501525878906
1697619942803183000,5.32018310546875,30.412500381469727,-5.981250286102295,-37.81875228881836
1697619942823172400,5.34017236328125,30.318750381469727,-5.71875,-37.91250228881836
1697619942843159800,5.360159912109375,30.412500381469727,-5.71875,-37.91250228881836
1697619942863157800,5.38015771484375,29.681251525878906,-5.625,-38.118751525878906
1697619942883163600,5.40016357421875,30.506250381469727,-5.887500286102295,-38.025001525878906
1697619942903154700,5.42015478515625,30.30000114440918,-6.243750095367432,-38.025001525878906
1697619942923160300,5.440160400390625,30.318750381469727,-6.506250381469727,-37.53750228881836
1697619942943149600,5.460149658203125,29.981250762939453,-6.431250095367432,-38.34375
1697619942963160300,5.480160400390625,30.712501525878906,-6.506250381469727,-37.837501525878906
1697619942983165200,5.500165283203125,29.681251525878906,-6.525000095367432,-38.15625
1697619943003175700,5.52017578125,30.093751907348633,-6.412500381469727,-37.837501525878906
1697619943023179500,5.540179443359375,29.887500762939453,-6.243750095367432,-37.931251525878906
1697619943043166500,5.56016650390625,30.30000114440918,-6.168750286102295,-38.23125076293945
1697619943063175000,5.5801748046875,29.775001525878906,-6.187500476837158,-38.53125
1697619943083177200,5.60017724609375,29.887500762939453,-6.093750476837158,-38.64375305175781
1697619943103167200,5.620167236328125,29.568750381469727,-6,-38.4375
1697619943123174000,5.640173828125,29.887500762939453,-5.90625,-38.13750076293945
1697619943143164000,5.660163818359375,29.981250762939453,-5.71875,-38.118751525878906
1697619943163163400,5.680163330078125,30.093751907348633,-5.90625,-38.625
1697619943183170300,5.70017041015625,29.775001525878906,-6.243750095367432,-37.931251525878906
1697619943203171800,5.720171875,29.887500762939453,-6.168750286102295,-38.34375
1697619943223180000,5.740179931640625,29.887500762939453,-6.262500286102295,-38.13750076293945
1697619943243170800,5.7601708984375,29.981250762939453,-6.168750286102295,-38.34375
1697619943263170600,5.780170654296875,29.568750381469727,-6.168750286102295,-38.34375
1697619943283178000,5.800177978515625,29.981250762939453,-6.075000286102295,-38.025001525878906
1697619943303171800,5.820171875,30.093751907348633,-6.356250286102295,-38.23125076293945
1697619943323170600,5.840170654296875,29.568750381469727,-6.525000095367432,-38.55000305175781
1697619943343165700,5.860165771484375,29.775001525878906,-6.168750286102295,-37.931251525878906
1697619943363169000,5.8801689453125,29.887500762939453,-6.525000095367432,-38.45625305175781
1697619943383168000,5.90016796875,30.093751907348633,-6.618750095367432,-38.34375
1697619943403174100,5.920174072265625,30.30000114440918,-6.168750286102295,-38.23125076293945
1697619943423168500,5.94016845703125,30.20625114440918,-6.618750095367432,-38.04375076293945
1697619943443173600,5.960173583984375,30.506250381469727,-6.168750286102295,-38.23125076293945
1697619943463178000,5.980177978515625,29.587501525878906,-6.412500381469727,-37.33125305175781
1697619943483177500,6.000177490234375,29.887500762939453,-6.712500095367432,-38.45625305175781
1697619943503164700,6.02016455078125,29.887500762939453,-6.412500381469727,-37.63125228881836
1697619943523162400,6.040162353515625,29.662500381469727,-6.431250095367432,-38.45625305175781
1697619943543157200,6.0601572265625,29.775001525878906,-6.881250381469727,-38.36250305175781
1697619943563148500,6.0801484375,30.20625114440918,-6.168750286102295,-38.025001525878906
1697619943583142400,6.100142333984375,29.887500762939453,-6.506250381469727,-37.837501525878906
1697619943603149300,6.1201494140625,30.506250381469727,-6.525000095367432,-38.04375076293945
1697619943623151000,6.140151123046875,29.36250114440918,-6.431250095367432,-38.15625
1697619943643148000,6.16014794921875,30.093751907348633,-6.431250095367432,-38.04375076293945
1697619943663153400,6.1801533203125,29.981250762939453,-6.243750095367432,-38.13750076293945
1697619943683165000,6.2001650390625,29.887500762939453,-6.618750095367432,-38.45625305175781
1697619943703163100,6.2201630859375,29.887500762939453,-6.787500381469727,-37.95000076293945
1697619943723175200,6.240175048828125,30.30000114440918,-6.618750095367432,-38.34375
1697619943743168800,6.260168701171875,29.156251907348633,-6.787500381469727,-37.76250076293945
1697619943763170800,6.2801708984375,29.775001525878906,-6.618750095367432,-38.15625
1697619943783179000,6.300178955078125,30.20625114440918,-6.787500381469727,-37.95000076293945
1697619943803181300,6.320181396484375,30.093751907348633,-6.600000381469727,-37.837501525878906
1697619943823178500,6.340178466796875,30.30000114440918,-6.862500190734863,-38.15625
1697619943843171800,6.360171875,30.187501907348633,-6.787500381469727,-38.34375
1697619943863174000,6.380173828125,29.45625114440918,-6.881250381469727,-38.36250305175781
1697619943883171300,6.40017138671875,30.712501525878906,-6.862500190734863,-37.931251525878906
1697619943903157500,6.420157470703125,30.712501525878906,-7.406250476837158,-37.96875
1697619943923162000,6.440162109375,29.981250762939453,-6.787500381469727,-38.15625
1697619943943161900,6.460161865234375,29.681251525878906,-6.956250190734863,-37.556251525878906
1697619943963169000,6.4801689453125,30.187501907348633,-6.693750381469727,-38.25
1697619943983170600,6.500170654296875,30.093751907348633,-6.956250190734863,-37.743751525878906
1697619944003179000,6.520178955078125,30.187501907348633,-7.068750381469727,-38.36250305175781
1697619944023181300,6.540181396484375,29.26875114440918,-7.068750381469727,-38.26875305175781
1697619944043178800,6.5601787109375,30.618751525878906,-6.787500381469727,-38.34375
1697619944063183400,6.580183349609375,29.887500762939453,-6.862500190734863,-37.650001525878906
1697619944083176000,6.600176025390625,30.093751907348633,-6.525000095367432,-38.55000305175781
1697619944103165400,6.62016552734375,30.412500381469727,-6.693750381469727,-37.743751525878906
1697619944123172400,6.64017236328125,30.712501525878906,-6.956250190734863,-38.04375076293945
1697619944143155200,6.6601552734375,30.825000762939453,-7.218750476837158,-37.650001525878906
1697619944163149800,6.68014990234375,29.26875114440918,-6.787500381469727,-38.26875305175781
1697619944183152600,6.700152587890625,29.45625114440918,-6.806250095367432,-38.45625305175781
1697619944203151000,6.720151123046875,29.793750762939453,-6.243750095367432,-37.837501525878906
1697619944223148500,6.7401484375,29.062501907348633,-6.431250095367432,-37.95000076293945
1697619944243140600,6.760140625,31.23750114440918,-6.600000381469727,-37.837501525878906
1697619944263149800,6.78014990234375,29.36250114440918,-6.243750095367432,-37.743751525878906
1697619944283164400,6.800164306640625,30.093751907348633,-6.356250286102295,-38.23125076293945
1697619944303165000,6.8201650390625,29.156251907348633,-5.831250190734863,-38.73750305175781
1697619944323167500,6.84016748046875,29.793750762939453,-5.981250286102295,-37.837501525878906
1697619944343165400,6.86016552734375,28.537500381469727,-6.075000286102295,-38.04375076293945
1697619944363170600,6.880170654296875,29.043750762939453,-6,-38.34375
1697619944383170300,6.90017041015625,29.062501907348633,-5.962500095367432,-37.44375228881836
1697619944403177000,6.920177001953125,30.093751907348633,-6.075000286102295,-38.4375
1697619944423178000,6.940177978515625,28.743751525878906,-5.981250286102295,-37.931251525878906
1697619944443174000,6.960173828125,29.981250762939453,-6.243750095367432,-38.13750076293945
1697619944463178000,6.980177978515625,30.506250381469727,-5.981250286102295,-38.025001525878906
1697619944483177000,7.000177001953125,29.775001525878906,-6.168750286102295,-38.23125076293945
1697619944503164400,7.020164306640625,29.681251525878906,-5.793750286102295,-37.837501525878906
1697619944523169000,7.0401689453125,29.475000381469727,-5.71875,-37.72500228881836
1697619944543157800,7.06015771484375,28.950000762939453,-5.981250286102295,-37.931251525878906
1697619944563167700,7.080167724609375,29.475000381469727,-5.456250190734863,-37.91250228881836
1697619944583171600,7.100171630859375,30.11250114440918,-5.625,-37.51875305175781
1697619944603170800,7.1201708984375,30.318750381469727,-5.175000190734863,-37.89375305175781
1697619944623177200,7.14017724609375,29.062501907348633,-5.100000381469727,-37.91250228881836
1697619944643166500,7.16016650390625,30.412500381469727,-5.362500190734863,-37.89375305175781
1697619944663165400,7.18016552734375,29.381250381469727,-5.268750190734863,-37.40625
1697619944683172000,7.200172119140625,29.887500762939453,-4.931250095367432,-38.306251525878906
1697619944703166500,7.22016650390625,29.17500114440918,-4.818750381469727,-37.20000076293945
1697619944723176000,7.240176025390625,29.36250114440918,-4.837500095367432,-38.10000228881836
1697619944743160600,7.26016064453125,29.887500762939453,-4.837500095367432,-38.10000228881836
1697619944763155500,7.280155517578125,29.062501907348633,-4.912500381469727,-38.00625228881836
1697619944783167200,7.300167236328125,29.36250114440918,-5.006250381469727,-38.00625228881836
1697619944803172000,7.320172119140625,29.17500114440918,-4.837500095367432,-37.80000305175781
1697619944823164400,7.340164306640625,28.650001525878906,-5.193750381469727,-37.91250228881836
1697619944843154200,7.360154296875,29.587501525878906,-5.268750190734863,-37.91250228881836
1697619944863153700,7.380153564453125,28.968751907348633,-5.287500381469727,-38.025001525878906
1697619944883152600,7.400152587890625,29.793750762939453,-5.456250190734863,-38.025001525878906
1697619944903145500,7.4201455078125,29.587501525878906,-5.4375,-37.61250305175781
1697619944923154700,7.44015478515625,29.36250114440918,-5.287500381469727,-38.118751525878906
1697619944943146500,7.460146484375,29.475000381469727,-5.625,-37.91250228881836
1697619944963159300,7.4801591796875,29.981250762939453,-5.362500190734863,-38.118751525878906
1697619944983164700,7.50016455078125,29.587501525878906,-5.362500190734863,-37.81875228881836
1697619945003176200,7.52017626953125,29.793750762939453,-5.625,-37.91250228881836
1697619945023180500,7.5401806640625,29.681251525878906,-6.150000095367432,-37.63125228881836
1697619945043167700,7.560167724609375,29.887500762939453,-5.981250286102295,-38.025001525878906
1697619945063176000,7.580176025390625,30.412500381469727,-6.506250381469727,-37.63125228881836
1697619945083178200,7.60017822265625,30.30000114440918,-6.337500095367432,-37.931251525878906
1697619945103168500,7.62016845703125,30.20625114440918,-6.600000381469727,-37.931251525878906
1697619945123175200,7.640175048828125,30.20625114440918,-6.675000190734863,-37.63125228881836
1697619945143164700,7.66016455078125,28.443750381469727,-6.600000381469727,-37.556251525878906
1697619945163164200,7.6801640625,30.39375114440918,-7.143750190734863,-37.95000076293945
1697619945183170800,7.7001708984375,30.30000114440918,-6.862500190734863,-38.15625
1697619945203172400,7.72017236328125,30.093751907348633,-6.937500476837158,-37.35000228881836
1697619945223169300,7.740169189453125,29.981250762939453,-7.125000476837158,-37.44375228881836
1697619945243162600,7.76016259765625,29.662500381469727,-6.693750381469727,-38.25
1697619945263165000,7.7801650390625,28.950000762939453,-7.237500190734863,-37.98750305175781
1697619945283174000,7.800173828125,29.475000381469727,-6.693750381469727,-38.26875305175781
1697619945303169800,7.820169677734375,29.26875114440918,-6.600000381469727,-37.743751525878906
1697619945323169500,7.84016943359375,29.45625114440918,-6.637500286102295,-38.75625228881836
1697619945343165400,7.86016552734375,29.568750381469727,-6.975000381469727,-38.36250305175781
1697619945363169300,7.880169189453125,30.281251907348633,-7.143750190734863,-38.26875305175781
1697619945383168500,7.90016845703125,29.475000381469727,-7.125000476837158,-37.462501525878906
1697619945403163600,7.92016357421875,30.187501907348633,-7.237500190734863,-37.96875
1697619945423160000,7.94016015625,29.568750381469727,-7.481250286102295,-37.76250076293945
1697619945443160800,7.960160888671875,29.568750381469727,-7.125000476837158,-37.76250076293945
1697619945463168800,7.980168701171875,29.568750381469727,-7.575000286102295,-37.875
1697619945483164000,8.000163818359376,29.887500762939453,-7.406250476837158,-37.96875
1697619945503155200,8.0201552734375,29.887500762939453,-7.406250476837158,-37.96875
1697619945523155700,8.04015576171875,29.568750381469727,-7.143750190734863,-38.0625
1697619945543146000,8.06014599609375,29.887500762939453,-7.050000190734863,-37.96875
1697619945563141400,8.080141357421875,30.506250381469727,-7.218750476837158,-37.85625076293945
1697619945583152600,8.100152587890625,28.725000381469727,-7.425000190734863,-38.38125228881836
1697619945603146500,8.120146484375,30.506250381469727,-7.218750476837158,-37.743751525878906
1697619945623160300,8.140160400390625,29.681251525878906,-6.956250190734863,-37.85625076293945
1697619945643156000,8.160156005859376,29.981250762939453,-7.481250286102295,-37.76250076293945
1697619945663170800,8.1801708984375,30.412500381469727,-7.218750476837158,-37.556251525878906
1697619945683178000,8.200177978515624,30.093751907348633,-7.143750190734863,-37.96875
1697619945703172400,8.22017236328125,29.981250762939453,-7.668750286102295,-37.875
1697619945723181300,8.240181396484376,30.093751907348633,-7.125000476837158,-37.85625076293945
1697619945743172600,8.260172607421875,30.093751907348633,-7.406250476837158,-38.0625
1697619945763172600,8.280172607421875,29.775001525878906,-7.125000476837158,-37.76250076293945
1697619945783179800,8.3001796875,29.156251907348633,-7.143750190734863,-37.96875
1697619945803169800,8.320169677734375,29.887500762939453,-7.500000476837158,-38.0625
1697619945823169000,8.3401689453125,29.981250762939453,-7.218750476837158,-37.556251525878906
1697619945843164400,8.360164306640625,29.475000381469727,-6.956250190734863,-37.85625076293945
1697619945863168300,8.380168212890625,29.568750381469727,-7.312500476837158,-37.875
1697619945883167500,8.40016748046875,29.775001525878906,-7.312500476837158,-38.17500305175781
1697619945903155000,8.420155029296875,29.681251525878906,-7.125000476837158,-37.76250076293945
1697619945923160300,8.440160400390624,29.568750381469727,-7.143750190734863,-37.85625076293945
1697619945943160800,8.460160888671876,30.618751525878906,-7.312500476837158,-37.96875
1697619945963168800,8.480168701171875,29.568750381469727,-7.593750476837158,-38.17500305175781
1697619945983170600,8.500170654296875,30.093751907348633,-7.406250476837158,-37.85625076293945
1697619946003168000,8.52016796875,30.093751907348633,-7.481250286102295,-37.66875076293945
1697619946023172900,8.5401728515625,30.187501907348633,-7.312500476837158,-37.96875
1697619946043172600,8.560172607421874,30.30000114440918,-7.406250476837158,-38.0625
1697619946063179500,8.580179443359375,29.568750381469727,-7.668750286102295,-37.78125
1697619946083172900,8.6001728515625,30.075000762939453,-7.593750476837158,-38.26875305175781
1697619946103165000,8.6201650390625,29.887500762939453,-7.575000286102295,-37.76250076293945
1697619946123172600,8.640172607421874,29.26875114440918,-7.931250095367432,-37.59375
1697619946143166500,8.66016650390625,29.45625114440918,-7.762500286102295,-38.28750228881836
1697619946163158000,8.680157958984376,29.662500381469727,-8.02500057220459,-38.28750228881836
1697619946183158800,8.70015869140625,29.043750762939453,-8.02500057220459,-37.80000305175781
1697619946203159800,8.720159912109375,29.662500381469727,-8.21250057220459,-38.306251525878906
1697619946223167200,8.740167236328125,29.981250762939453,-7.856250286102295,-38.08125305175781
1697619946243161600,8.76016162109375,30.30000114440918,-8.11875057220459,-37.875
1697619946263164700,8.78016455078125,29.662500381469727,-8.550000190734863,-37.80000305175781
1697619946283174100,8.800174072265625,30.39375114440918,-7.837500095367432,-37.76250076293945
1697619946303170800,8.8201708984375,29.887500762939453,-8.287500381469727,-37.6875
1697619946323170800,8.8401708984375,29.775001525878906,-7.950000286102295,-38.493751525878906
1697619946343166200,8.860166259765625,30.093751907348633,-7.837500095367432,-37.875
1697619946363170000,8.880170166015626,29.981250762939453,-7.762500286102295,-38.47500228881836
1697619946383169000,8.9001689453125,29.475000381469727,-7.912500381469727,-37.38750076293945
1697619946403164200,8.9201640625,30.618751525878906,-7.668750286102295,-37.76250076293945
1697619946423167500,8.94016748046875,30.412500381469727,-7.743750095367432,-37.25625228881836
1697619946443166200,8.960166259765625,30.618751525878906,-7.837500095367432,-37.76250076293945
1697619946463172400,8.98017236328125,29.45625114440918,-7.593750476837158,-38.17500305175781
1697619946483173000,9.000173095703126,29.868751525878906,-7.762500286102295,-38.47500228881836
1697619946503162000,9.020162109375,29.343751907348633,-8.137500762939453,-38.400001525878906
1697619946523168000,9.04016796875,30.30000114440918,-7.856250286102295,-37.98750305175781
1697619946543157500,9.060157470703125,29.887500762939453,-7.743750095367432,-37.6875
1697619946563167700,9.080167724609375,30.618751525878906,-7.931250095367432,-37.96875
1697619946583172000,9.100172119140625,30.712501525878906,-7.912500381469727,-37.57500076293945
1697619946603160000,9.12016015625,30.30000114440918,-7.743750095367432,-37.875
1697619946623157800,9.14015771484375,30.937501907348633,-8.006250381469727,-37.25625228881836
1697619946643152100,9.160152099609375,30.712501525878906,-8.02500057220459,-37.875
1697619946663166500,9.18016650390625,30.30000114440918,-7.931250095367432,-37.78125
1697619946683174000,9.200173828125,30.712501525878906,-7.575000286102295,-37.66875076293945
1697619946703168300,9.220168212890625,30.20625114440918,-7.837500095367432,-37.66875076293945
1697619946723178200,9.24017822265625,30.281251907348633,-8.02500057220459,-37.98750305175781
1697619946743174000,9.260173828125,30.093751907348633,-8.006250381469727,-37.275001525878906
1697619946763169800,9.280169677734374,30.187501907348633,-8.02500057220459,-38.08125305175781
1697619946783166500,9.30016650390625,30.506250381469727,-7.931250095367432,-37.875
1697619946803163600,9.32016357421875,30.506250381469727,-7.575000286102295,-37.96875
1697619946823157500,9.340157470703126,30.093751907348633,-7.837500095367432,-37.275001525878906
1697619946843148500,9.3601484375,30.412500381469727,-7.462500095367432,-37.16250228881836
1697619946863149800,9.38014990234375,30.412500381469727,-7.743750095367432,-37.368751525878906
1697619946883149800,9.40014990234375,30.506250381469727,-7.743750095367432,-37.76250076293945
1697619946903143700,9.420143798828125,30.39375114440918,-7.837500095367432,-37.66875076293945
1697619946923153400,9.4401533203125,30.825000762939453,-7.575000286102295,-37.76250076293945
1697619946943157000,9.460156982421875,30.20625114440918,-7.912500381469727,-37.275001525878906
1697619946963167200,9.480167236328125,30.712501525878906,-7.743750095367432,-37.462501525878906
1697619946983170800,9.5001708984375,30.187501907348633,-8.02500057220459,-37.875
1697619947003169300,9.520169189453124,30.618751525878906,-7.837500095367432,-37.57500076293945
1697619947023174700,9.540174560546875,30.20625114440918,-7.668750286102295,-37.57500076293945
1697619947043163100,9.5601630859375,30.506250381469727,-8.287500381469727,-37.48125076293945
1697619947063172600,9.580172607421876,30.618751525878906,-7.931250095367432,-37.875
1697619947083176000,9.600176025390626,30.281251907348633,-8.193750381469727,-37.875
1697619947103167200,9.620167236328125,29.887500762939453,-8.287500381469727,-37.78125
1697619947123174400,9.64017431640625,30.937501907348633,-7.387500286102295,-37.650001525878906
1697619947143164700,9.66016455078125,30.093751907348633,-7.931250095367432,-37.98750305175781
1697619947163175200,9.680175048828126,30.712501525878906,-7.668750286102295,-37.96875
1697619947183179800,9.7001796875,30.825000762939453,-7.743750095367432,-37.556251525878906
1697619947203167500,9.72016748046875,30.39375114440918,-7.762500286102295,-38.0625
1697619947223165200,9.740165283203124,30.600000381469727,-8.11875057220459,-38.08125305175781
1697619947243159300,9.7601591796875,30.712501525878906,-7.650000095367432,-37.368751525878906
1697619947263162000,9.780162109375,30.093751907348633,-8.11875057220459,-37.98750305175781
1697619947283171800,9.800171875,31.031251907348633,-7.650000095367432,-37.35000228881836
1697619947303168300,9.820168212890625,30.712501525878906,-8.287500381469727,-37.6875
1697619947323168500,9.84016845703125,30.618751525878906,-7.837500095367432,-37.57500076293945
1697619947343164700,9.86016455078125,30.30000114440918,-7.931250095367432,-37.66875076293945
1697619947363168800,9.880168701171876,30.39375114440918,-7.931250095367432,-37.76250076293945
1697619947383168000,9.90016796875,30.075000762939453,-7.856250286102295,-38.38125228881836
1697619947403156000,9.920156005859376,30.506250381469727,-7.931250095367432,-37.76250076293945
1697619947423164200,9.9401640625,30.093751907348633,-7.931250095367432,-37.6875
1697619947443164200,9.9601640625,30.618751525878906,-7.743750095367432,-37.76250076293945
1697619947463171600,9.980171630859376,30.412500381469727,-7.837500095367432,-37.462501525878906
1697619947483165400,10.00016552734375,30.39375114440918,-7.931250095367432,-37.76250076293945
1697619947503156500,10.020156494140625,30.39375114440918,-7.837500095367432,-37.76250076293945
1697619947523156700,10.04015673828125,30.712501525878906,-7.931250095367432,-37.96875
1697619947543146800,10.060146728515624,31.031251907348633,-8.006250381469727,-37.462501525878906
1697619947563141400,10.080141357421875,30.825000762939453,-7.931250095367432,-37.76250076293945
1697619947583153000,10.10015283203125,29.887500762939453,-8.456250190734863,-37.70625305175781
1697619947603146500,10.120146484375,30.712501525878906,-8.006250381469727,-37.66875076293945
1697619947623160600,10.14016064453125,29.887500762939453,-7.931250095367432,-37.78125
1697619947643156000,10.160156005859376,30.39375114440918,-7.931250095367432,-37.98750305175781
1697619947663170800,10.1801708984375,29.981250762939453,-7.837500095367432,-37.78125
1697619947683178000,10.200177978515624,29.981250762939453,-7.387500286102295,-37.462501525878906
1697619947703172600,10.220172607421874,30.187501907348633,-7.837500095367432,-37.76250076293945
1697619947723181300,10.240181396484376,30.806251525878906,-8.193750381469727,-37.98750305175781
1697619947743172600,10.260172607421875,30.281251907348633,-7.762500286102295,-38.17500305175781
1697619947763172600,10.280172607421875,31.443750381469727,-7.837500095367432,-37.66875076293945
1697619947783179800,10.3001796875,30.506250381469727,-7.837500095367432,-37.462501525878906
1697619947803169800,10.320169677734375,30.187501907348633,-7.743750095367432,-37.76250076293945
1697619947823169000,10.3401689453125,30.712501525878906,-8.100000381469727,-37.368751525878906
1697619947843164400,10.360164306640625,30.39375114440918,-8.100000381469727,-37.6875
1697619947863168300,10.380168212890625,30.281251907348633,-8.287500381469727,-37.98750305175781
1697619947883167500,10.40016748046875,30.712501525878906,-8.006250381469727,-37.66875076293945
1697619947903155500,10.420155517578126,31.031251907348633,-7.837500095367432,-37.368751525878906
1697619947923160600,10.44016064453125,30.618751525878906,-7.743750095367432,-37.462501525878906
1697619947943161000,10.4601611328125,30.506250381469727,-7.931250095367432,-37.76250076293945
1697619947963168800,10.480168701171875,30.093751907348633,-7.762500286102295,-37.98750305175781
1697619947983170800,10.5001708984375,30.39375114440918,-7.837500095367432,-37.875
1697619948003168300,10.520168212890624,30.39375114440918,-7.856250286102295,-38.0625
1697619948023161900,10.540161865234374,30.712501525878906,-7.837500095367432,-37.875
1697619948043164200,10.5601640625,30.39375114440918,-7.481250286102295,-37.96875
1697619948063178200,10.58017822265625,28.537500381469727,-7.743750095367432,-37.38750076293945
1697619948083174000,10.600173828125,30.093751907348633,-7.406250476837158,-38.0625
1697619948103169500,10.62016943359375,30.093751907348633,-7.293750286102295,-37.556251525878906
1697619948123176400,10.640176513671875,30.20625114440918,-7.575000286102295,-37.66875076293945
1697619948143158800,10.66015869140625,30.39375114440918,-7.837500095367432,-37.66875076293945
1697619948163152400,10.68015234375,30.093751907348633,-7.743750095367432,-37.462501525878906
1697619948183155000,10.700155029296875,29.662500381469727,-7.950000286102295,-38.493751525878906
1697619948203141600,10.7201416015625,31.23750114440918,-7.575000286102295,-37.743751525878906
1697619948223150800,10.74015087890625,29.475000381469727,-8.02500057220459,-37.59375
1697619948243150000,10.760150146484374,31.031251907348633,-7.912500381469727,-37.556251525878906
1697619948263157000,10.780156982421875,30.30000114440918,-7.837500095367432,-37.66875076293945
1697619948283169800,10.800169677734376,30.093751907348633,-7.931250095367432,-37.78125
1697619948303167700,10.820167724609375,29.662500381469727,-8.02500057220459,-37.6875
1697619948323169300,10.840169189453125,30.600000381469727,-8.381250381469727,-38.08125305175781
1697619948343166200,10.860166259765625,29.662500381469727,-8.643750190734863,-37.91250228881836
1697619948363170800,10.8801708984375,30.30000114440918,-7.931250095367432,-37.66875076293945
1697619948383170000,10.900170166015625,30.20625114440918,-8.006250381469727,-37.16250228881836
1697619948403165400,10.92016552734375,29.887500762939453,-7.837500095367432,-37.78125
1697619948423168800,10.940168701171874,30.093751907348633,-8.02500057220459,-37.6875
1697619948443167200,10.960167236328125,30.712501525878906,-8.006250381469727,-37.462501525878906
1697619948463173400,10.98017333984375,30.093751907348633,-7.668750286102295,-37.66875076293945
1697619948483174000,11.000173828125,30.093751907348633,-7.931250095367432,-37.6875
1697619948503163100,11.0201630859375,30.712501525878906,-7.837500095367432,-37.66875076293945
1697619948523169000,11.0401689453125,30.39375114440918,-8.006250381469727,-37.57500076293945
1697619948543158000,11.060157958984375,30.093751907348633,-8.11875057220459,-37.78125
1697619948563168500,11.08016845703125,30.187501907348633,-8.02500057220459,-38.17500305175781
1697619948583172600,11.100172607421875,29.775001525878906,-7.931250095367432,-37.6875
1697619948603171600,11.120171630859375,30.093751907348633,-7.668750286102295,-37.66875076293945
1697619948623166700,11.140166748046875,30.187501907348633,-7.762500286102295,-38.08125305175781
1697619948643158500,11.160158447265625,30.093751907348633,-7.762500286102295,-38.08125305175781
1697619948663171000,11.180171142578125,29.775001525878906,-7.668750286102295,-37.78125
1697619948683176700,11.2001767578125,30.39375114440918,-7.406250476837158,-37.76250076293945
1697619948703171000,11.220171142578126,30.093751907348633,-7.293750286102295,-37.16250228881836
1697619948723179500,11.240179443359375,30.39375114440918,-7.143750190734863,-38.15625
1697619948743164400,11.260164306640625,30.093751907348633,-7.575000286102295,-37.76250076293945
1697619948763166200,11.280166259765625,30.093751907348633,-7.575000286102295,-38.0625
1697619948783175000,11.3001748046875,30.506250381469727,-7.931250095367432,-37.66875076293945
1697619948803158800,11.32015869140625,30.712501525878906,-7.743750095367432,-37.875
1697619948823154400,11.340154541015625,30.281251907348633,-7.575000286102295,-38.17500305175781
1697619948843146200,11.360146240234375,30.093751907348633,-7.668750286102295,-37.76250076293945
1697619948863165700,11.380165771484375,29.981250762939453,-8.11875057220459,-37.78125
1697619948883159600,11.40015966796875,30.30000114440918,-7.837500095367432,-37.66875076293945
1697619948903150800,11.42015087890625,29.775001525878906,-8.100000381469727,-37.48125076293945
1697619948923158300,11.440158203125,30.187501907348633,-8.287500381469727,-37.98750305175781
1697619948943159800,11.460159912109376,30.30000114440918,-8.550000190734863,-37.6875
1697619948963168800,11.480168701171875,30.187501907348633,-8.02500057220459,-37.6875
1697619948983171300,11.50017138671875,29.775001525878906,-8.475000381469727,-38.00625228881836
1697619949003169000,11.5201689453125,30.712501525878906,-8.625,-37.59375
1697619949023174100,11.540174072265625,30.506250381469727,-8.456250190734863,-37.6875
1697619949043162400,11.560162353515626,30.712501525878906,-8.381250381469727,-37.98750305175781
1697619949063171800,11.580171875,30.712501525878906,-8.456250190734863,-37.89375305175781
1697619949083175200,11.600175048828126,30.30000114440918,-8.193750381469727,-37.6875
1697619949103166000,11.620166015625,29.981250762939453,-8.287500381469727,-37.6875
1697619949123173000,11.640173095703124,30.506250381469727,-8.625,-37.48125076293945
1697619949143163600,11.66016357421875,30.093751907348633,-8.8125,-37.5
1697619949163174700,11.680174560546876,30.712501525878906,-8.100000381469727,-37.66875076293945
1697619949183179300,11.70017919921875,30.412500381469727,-8.456250190734863,-37.275001525878906
1697619949203167200,11.720167236328125,29.887500762939453,-8.568750381469727,-37.89375305175781
1697619949223176200,11.74017626953125,30.618751525878906,-8.193750381469727,-37.48125076293945
1697619949243167700,11.760167724609374,30.187501907348633,-7.575000286102295,-37.875
1697619949263168500,11.78016845703125,29.887500762939453,-8.193750381469727,-37.89375305175781
1697619949283176400,11.800176513671875,29.775001525878906,-8.21250057220459,-38.19375228881836
1697619949303170800,11.8201708984375,29.568750381469727,-7.837500095367432,-37.6875
1697619949323169800,11.840169677734375,29.887500762939453,-7.762500286102295,-38.17500305175781
1697619949343165000,11.8601650390625,29.475000381469727,-8.193750381469727,-37.6875
1697619949363168800,11.880168701171876,29.775001525878906,-7.575000286102295,-37.875
1697619949383168300,11.900168212890625,30.39375114440918,-7.837500095367432,-37.66875076293945
1697619949403155700,11.92015576171875,29.775001525878906,-7.762500286102295,-38.08125305175781
1697619949423168300,11.940168212890624,29.775001525878906,-7.500000476837158,-38.0625
1697619949443167000,11.9601669921875,30.093751907348633,-7.668750286102295,-37.76250076293945
1697619949463165700,11.980165771484375,29.043750762939453,-7.406250476837158,-37.6875
1697619949483160800,12.000160888671875,30.39375114440918,-7.837500095367432,-37.875
1697619949503153200,12.020153076171875,29.681251525878906,-7.668750286102295,-37.57500076293945
1697619949523158800,12.04015869140625,29.587501525878906,-7.575000286102295,-37.368751525878906
1697619949543144700,12.060144775390626,30.30000114440918,-7.668750286102295,-37.875
1697619949563147500,12.0801474609375,29.568750381469727,-7.931250095367432,-38.08125305175781
1697619949583157500,12.100157470703126,29.26875114440918,-7.837500095367432,-37.6875
1697619949603150000,12.120150146484375,29.775001525878906,-7.687500476837158,-38.28750228881836
1697619949623163100,12.1401630859375,28.743751525878906,-7.668750286102295,-37.48125076293945
1697619949643157500,12.160157470703124,30.30000114440918,-7.743750095367432,-37.76250076293945
1697619949663171600,12.180171630859375,29.981250762939453,-8.381250381469727,-37.98750305175781
1697619949683178500,12.200178466796874,30.618751525878906,-8.193750381469727,-37.875
1697619949703171800,12.220171875,30.093751907348633,-7.837500095367432,-37.875
1697619949723180800,12.240180908203126,30.825000762939453,-8.006250381469727,-37.57500076293945
1697619949743171800,12.260171875,29.662500381469727,-8.193750381469727,-37.78125
1697619949763172000,12.280172119140625,30.20625114440918,-7.668750286102295,-37.57500076293945
1697619949783179300,12.30017919921875,30.093751907348633,-7.837500095367432,-37.6875
1697619949803169300,12.320169189453125,30.187501907348633,-8.193750381469727,-37.6875
1697619949823168800,12.340168701171875,29.475000381469727,-8.11875057220459,-37.59375
1697619949843164200,12.3601640625,29.868751525878906,-8.21250057220459,-38.19375228881836
1697619949863168000,12.38016796875,30.093751907348633,-7.837500095367432,-37.462501525878906
1697619949883167200,12.400167236328125,29.981250762939453,-8.02500057220459,-37.6875
1697619949903155200,12.4201552734375,29.36250114440918,-8.100000381469727,-37.48125076293945
1697619949923160800,12.440160888671874,30.187501907348633,-8.11875057220459,-37.78125
1697619949943161300,12.460161376953126,30.20625114440918,-8.100000381469727,-37.48125076293945
1697619949963169000,12.4801689453125,29.981250762939453,-8.11875057220459,-37.89375305175781
1697619949983171000,12.500171142578125,29.887500762939453,-8.193750381469727,-37.59375
1697619950003168300,12.520168212890624,30.30000114440918,-8.11875057220459,-37.78125
1697619950023173400,12.54017333984375,30.918750762939453,-8.02500057220459,-37.875
1697619950043172900,12.5601728515625,30.506250381469727,-7.931250095367432,-37.76250076293945
1697619950063171800,12.580171875,29.45625114440918,-8.381250381469727,-37.80000305175781
1697619950083170600,12.600170654296875,30.30000114440918,-7.912500381469727,-37.462501525878906
1697619950103162600,12.62016259765625,29.887500762939453,-8.193750381469727,-37.98750305175781
1697619950123171000,12.640171142578126,30.075000762939453,-7.931250095367432,-38.17500305175781
1697619950143155500,12.660155517578126,29.887500762939453,-8.456250190734863,-37.29375076293945
1697619950163149600,12.680149658203124,30.093751907348633,-8.193750381469727,-37.89375305175781
1697619950183153000,12.70015283203125,30.075000762939453,-8.287500381469727,-37.98750305175781
1697619950203140400,12.720140380859375,29.568750381469727,-8.30625057220459,-38.10000228881836
1697619950223154000,12.74015380859375,29.36250114440918,-8.21250057220459,-38.10000228881836
1697619950243152400,12.76015234375,29.887500762939453,-7.931250095367432,-37.98750305175781
1697619950263159000,12.780158935546876,29.681251525878906,-8.362500190734863,-37.38750076293945
1697619950283171000,12.800171142578124,29.887500762939453,-8.02500057220459,-37.98750305175781
1697619950303169300,12.820169189453125,29.981250762939453,-7.743750095367432,-37.78125
1697619950323170300,12.84017041015625,30.39375114440918,-7.931250095367432,-38.08125305175781
1697619950343167000,12.8601669921875,29.981250762939453,-8.381250381469727,-37.78125
1697619950363171300,12.88017138671875,30.20625114440918,-8.006250381469727,-37.57500076293945
1697619950383170300,12.90017041015625,29.981250762939453,-8.362500190734863,-37.6875
1697619950403165400,12.92016552734375,30.39375114440918,-8.381250381469727,-37.89375305175781
1697619950423168800,12.940168701171874,29.568750381469727,-7.668750286102295,-37.6875
1697619950443167000,12.9601669921875,30.20625114440918,-8.193750381469727,-37.57500076293945
1697619950463173000,12.980173095703124,29.662500381469727,-8.21250057220459,-38.10000228881836
1697619950483173600,13.000173583984376,29.681251525878906,-8.02500057220459,-37.59375
1697619950503162600,13.02016259765625,27.48750114440918,-7.518750190734863,-38.41875076293945
1697619950523168500,13.04016845703125,29.775001525878906,-7.687500476837158,-38.17500305175781
1697619950543157800,13.06015771484375,30.506250381469727,-7.856250286102295,-38.0625
1697619950563168000,13.08016796875,29.887500762939453,-7.856250286102295,-37.875
1697619950583172400,13.10017236328125,30.39375114440918,-8.193750381469727,-37.78125
1697619950603171300,13.12017138671875,29.775001525878906,-8.11875057220459,-37.89375305175781
1697619950623166500,13.14016650390625,30.506250381469727,-8.006250381469727,-37.57500076293945
1697619950643169800,13.160169677734375,30.39375114440918,-7.931250095367432,-37.66875076293945
1697619950663168300,13.180168212890624,30.093751907348633,-8.287500381469727,-37.6875
1697619950683174100,13.200174072265625,30.30000114440918,-7.931250095367432,-37.66875076293945
1697619950703167500,13.22016748046875,30.506250381469727,-7.668750286102295,-37.76250076293945
1697619950723179500,13.240179443359375,30.39375114440918,-7.856250286102295,-38.17500305175781
1697619950743166700,13.260166748046874,30.281251907348633,-7.950000286102295,-38.38125228881836
1697619950763168300,13.280168212890626,30.39375114440918,-7.762500286102295,-37.96875
1697619950783176400,13.300176513671875,30.506250381469727,-7.856250286102295,-38.0625
1697619950803160800,13.320160888671875,30.39375114440918,-7.856250286102295,-38.0625
1697619950823155500,13.340155517578125,30.093751907348633,-7.837500095367432,-37.875
1697619950843146800,13.360146728515625,29.887500762939453,-7.837500095367432,-37.78125
1697619950863148500,13.3801484375,30.506250381469727,-7.856250286102295,-37.96875
1697619950883146500,13.400146484375,29.868751525878906,-7.950000286102295,-38.493751525878906
1697619950903140900,13.420140869140624,30.093751907348633,-8.287500381469727,-37.6875
1697619950923151400,13.4401513671875,30.600000381469727,-8.193750381469727,-38.08125305175781
1697619950943155500,13.460155517578125,30.187501907348633,-7.837500095367432,-37.875
1697619950963166200,13.480166259765625,29.981250762939453,-8.02500057220459,-37.6875
1697619950983170300,13.50017041015625,30.712501525878906,-8.100000381469727,-37.66875076293945
1697619951003168800,13.520168701171874,29.868751525878906,-8.30625057220459,-38.306251525878906
1697619951023174400,13.54017431640625,30.618751525878906,-8.193750381469727,-37.78125
1697619951043163100,13.5601630859375,30.806251525878906,-8.362500190734863,-37.875
1697619951063172600,13.580172607421876,30.506250381469727,-8.287500381469727,-37.6875
1697619951083176200,13.60017626953125,30.39375114440918,-8.362500190734863,-37.78125
1697619951103189200,13.620189208984375,29.981250762939453,-8.30625057220459,-38.19375228881836
1697619951123191300,13.64019140625,30.506250381469727,-8.287500381469727,-37.98750305175781
1697619951143200300,13.6602001953125,30.30000114440918,-8.11875057220459,-37.78125
1697619951163201800,13.680201904296876,29.981250762939453,-8.287500381469727,-37.89375305175781
1697619951183198200,13.7001982421875,29.868751525878906,-8.30625057220459,-38.60625076293945
1697619951203179500,13.720179443359376,30.093751907348633,-7.856250286102295,-37.98750305175781
1697619951223183400,13.740183349609374,30.412500381469727,-7.837500095367432,-37.57500076293945
1697619951243171000,13.760171142578125,30.618751525878906,-7.668750286102295,-37.85625076293945
1697619951263169000,13.7801689453125,30.075000762939453,-8.02500057220459,-38.28750228881836
1697619951283175000,13.8001748046875,30.187501907348633,-7.668750286102295,-38.0625
1697619951303169300,13.820169189453125,30.918750762939453,-7.575000286102295,-37.76250076293945
1697619951323167500,13.84016748046875,29.775001525878906,-7.931250095367432,-37.875
1697619951343162600,13.86016259765625,30.39375114440918,-7.668750286102295,-37.96875
1697619951363166500,13.88016650390625,30.30000114440918,-7.668750286102295,-37.875
1697619951383165400,13.90016552734375,29.887500762939453,-7.762500286102295,-38.17500305175781
1697619951403167200,13.920167236328124,30.187501907348633,-7.762500286102295,-37.875
1697619951423170000,13.940170166015625,30.281251907348633,-7.575000286102295,-38.17500305175781
1697619951443160800,13.960160888671876,30.281251907348633,-7.931250095367432,-38.08125305175781
1697619951463168500,13.98016845703125,29.981250762939453,-7.762500286102295,-38.08125305175781
1697619951483162600,14.00016259765625,30.712501525878906,-7.668750286102295,-37.85625076293945
1697619951503154000,14.02015380859375,30.187501907348633,-7.668750286102295,-38.0625
1697619951523172400,14.04017236328125,30.712501525878906,-7.931250095367432,-37.875
1697619951543154200,14.060154296875,30.39375114440918,-7.668750286102295,-37.96875
1697619951563154200,14.080154296875,30.39375114440918,-7.837500095367432,-37.76250076293945
1697619951583161900,14.100161865234375,29.981250762939453,-7.668750286102295,-37.875
1697619951603153000,14.12015283203125,30.506250381469727,-7.575000286102295,-37.76250076293945
1697619951623164400,14.140164306640624,29.981250762939453,-7.837500095367432,-37.57500076293945
1697619951643157800,14.16015771484375,30.39375114440918,-8.02500057220459,-37.98750305175781
1697619951663171300,14.18017138671875,30.187501907348633,-7.837500095367432,-37.76250076293945
1697619951683177700,14.200177734375,30.39375114440918,-8.362500190734863,-37.78125
1697619951703170800,14.2201708984375,30.506250381469727,-7.931250095367432,-37.96875
1697619951723179500,14.240179443359375,30.825000762939453,-8.02500057220459,-37.875
1697619951743170800,14.2601708984375,30.712501525878906,-8.362500190734863,-37.78125
1697619951763171000,14.280171142578125,30.618751525878906,-7.931250095367432,-37.66875076293945
1697619951783178500,14.300178466796876,31.125001907348633,-8.02500057220459,-38.0625
1697619951803168800,14.320168701171875,30.30000114440918,-8.100000381469727,-37.38750076293945
1697619951823168300,14.340168212890624,30.30000114440918,-8.193750381469727,-37.78125
1697619951843164000,14.360163818359375,30.39375114440918,-8.193750381469727,-37.875
1697619951863168000,14.38016796875,30.712501525878906,-8.475000381469727,-37.98750305175781
1697619951883167000,14.4001669921875,30.918750762939453,-8.11875057220459,-38.0625
1697619951903156000,14.420156005859376,30.39375114440918,-8.456250190734863,-37.89375305175781
1697619951923161000,14.4401611328125,31.031251907348633,-8.175000190734863,-37.368751525878906
1697619951943161300,14.460161376953126,30.618751525878906,-8.11875057220459,-37.78125
1697619951963169000,14.4801689453125,30.093751907348633,-8.193750381469727,-37.38750076293945
1697619951983170800,14.5001708984375,30.600000381469727,-8.643750190734863,-38.08125305175781
1697619952003168300,14.520168212890624,30.281251907348633,-8.381250381469727,-38.19375228881836
1697619952023172900,14.5401728515625,30.918750762939453,-8.193750381469727,-37.875
1697619952043172600,14.560172607421874,30.618751525878906,-8.287500381469727,-37.875
1697619952063175000,14.5801748046875,30.712501525878906,-8.456250190734863,-37.78125
1697619952083166000,14.600166015625,30.39375114440918,-8.550000190734863,-37.78125
1697619952103158800,14.62015869140625,30.806251525878906,-8.287500381469727,-37.875
1697619952123168300,14.640168212890625,30.506250381469727,-8.381250381469727,-38.08125305175781
1697619952143153000,14.66015283203125,30.600000381469727,-8.193750381469727,-38.08125305175781
1697619952163148300,14.680148193359376,30.712501525878906,-8.456250190734863,-37.78125
1697619952183158800,14.70015869140625,30.618751525878906,-8.362500190734863,-37.875
1697619952203145200,14.720145263671874,30.506250381469727,-8.287500381469727,-38.19375228881836
1697619952223156200,14.74015625,30.806251525878906,-8.381250381469727,-38.17500305175781
1697619952243154200,14.760154296875,30.187501907348633,-8.287500381469727,-37.89375305175781
1697619952263160000,14.78016015625,30.39375114440918,-8.362500190734863,-37.78125
1697619952283171800,14.800171875,30.806251525878906,-8.456250190734863,-37.78125
1697619952303169500,14.82016943359375,30.618751525878906,-8.362500190734863,-37.57500076293945
1697619952323170300,14.84017041015625,31.012500762939453,-8.193750381469727,-37.76250076293945
1697619952343166700,14.860166748046876,30.712501525878906,-8.11875057220459,-37.76250076293945
1697619952363170800,14.8801708984375,30.187501907348633,-8.02500057220459,-37.6875
1697619952383170000,14.900170166015625,31.031251907348633,-8.193750381469727,-37.57500076293945
1697619952403165200,14.920165283203126,30.712501525878906,-8.381250381469727,-38.08125305175781
1697619952423168500,14.94016845703125,30.918750762939453,-8.11875057220459,-38.17500305175781
1697619952443166700,14.960166748046875,30.39375114440918,-7.931250095367432,-37.875
1697619952463172900,14.9801728515625,30.806251525878906,-8.02500057220459,-37.96875
1697619952483173600,15.000173583984376,31.33125114440918,-8.100000381469727,-37.76250076293945
1697619952503162400,15.020162353515625,30.618751525878906,-7.912500381469727,-37.57500076293945
1697619952523157000,15.040156982421875,30.618751525878906,-7.931250095367432,-37.76250076293945
1697619952543149000,15.060149169921875,31.125001907348633,-8.11875057220459,-38.17500305175781
1697619952563161600,15.08016162109375,30.618751525878906,-7.931250095367432,-37.76250076293945
1697619952583167700,15.100167724609374,30.712501525878906,-8.193750381469727,-38.08125305175781
1697619952603168500,15.12016845703125,30.712501525878906,-8.193750381469727,-38.17500305175781
1697619952623165000,15.1401650390625,30.618751525878906,-8.193750381469727,-37.78125
1697619952643157800,15.16015771484375,30.712501525878906,-7.837500095367432,-37.96875
1697619952663170800,15.1801708984375,30.918750762939453,-7.837500095367432,-37.76250076293945
1697619952683177000,15.200177001953126,31.031251907348633,-8.02500057220459,-37.76250076293945
1697619952703171800,15.220171875,30.712501525878906,-8.11875057220459,-37.98750305175781
1697619952723173600,15.240173583984374,30.712501525878906,-8.02500057220459,-37.76250076293945
1697619952743173400,15.26017333984375,30.618751525878906,-8.02500057220459,-37.98750305175781
1697619952763173400,15.28017333984375,30.506250381469727,-7.837500095367432,-37.66875076293945
1697619952783180500,15.3001806640625,30.618751525878906,-8.193750381469727,-37.875
1697619952803163000,15.320162841796876,30.712501525878906,-7.837500095367432,-37.96875
1697619952823156200,15.34015625,30.918750762939453,-8.193750381469727,-37.462501525878906
1697619952843153700,15.360153564453125,31.33125114440918,-8.02500057220459,-37.85625076293945
1697619952863141600,15.3801416015625,31.031251907348633,-8.006250381469727,-37.57500076293945
1697619952883140600,15.400140625,31.012500762939453,-8.02500057220459,-37.96875
1697619952903136000,15.420135986328125,31.14375114440918,-7.912500381469727,-37.368751525878906
1697619952923147500,15.4401474609375,31.125001907348633,-8.006250381469727,-37.66875076293945
1697619952943153000,15.46015283203125,31.125001907348633,-8.11875057220459,-37.875
1697619952963164700,15.48016455078125,30.825000762939453,-7.912500381469727,-37.16250228881836
1697619952983169300,15.500169189453125,30.937501907348633,-8.100000381469727,-37.462501525878906
1697619953003168500,15.52016845703125,30.712501525878906,-7.668750286102295,-37.76250076293945
1697619953023174400,15.54017431640625,30.918750762939453,-7.837500095367432,-37.96875
1697619953043163400,15.560163330078124,30.806251525878906,-8.287500381469727,-37.98750305175781
1697619953063172900,15.5801728515625,30.825000762939453,-8.193750381469727,-37.78125
1697619953083176200,15.60017626953125,30.918750762939453,-8.02500057220459,-37.96875
1697619953103167700,15.620167724609376,30.806251525878906,-8.11875057220459,-37.98750305175781
1697619953123175000,15.6401748046875,30.506250381469727,-8.193750381469727,-37.875
1697619953143165000,15.6601650390625,30.825000762939453,-8.11875057220459,-37.76250076293945
1697619953163175700,15.68017578125,30.39375114440918,-8.02500057220459,-37.98750305175781
1697619953183179800,15.7001796875,30.506250381469727,-8.02500057220459,-38.28750228881836
1697619953203347000,15.720346923828124,30.39375114440918,-8.11875057220459,-38.08125305175781
1697619953223314200,15.740314208984374,30.712501525878906,-7.931250095367432,-38.17500305175781
1697619953243279600,15.760279541015626,30.806251525878906,-7.931250095367432,-37.96875
1697619953263246000,15.78024609375,30.918750762939453,-8.193750381469727,-37.66875076293945
1697619953283226400,15.800226318359375,31.012500762939453,-8.02500057220459,-38.0625
1697619953303199200,15.82019921875,30.618751525878906,-8.100000381469727,-37.6875
1697619953323182600,15.8401826171875,30.600000381469727,-8.02500057220459,-38.17500305175781
1697619953343166700,15.860166748046876,30.712501525878906,-7.931250095367432,-37.76250076293945
1697619953363163100,15.8801630859375,31.23750114440918,-8.11875057220459,-38.0625
1697619953383151400,15.9001513671875,31.031251907348633,-7.912500381469727,-37.66875076293945
1697619953403138800,15.920138916015626,30.618751525878906,-7.743750095367432,-37.66875076293945
1697619953423145500,15.9401455078125,30.506250381469727,-7.668750286102295,-37.96875
1697619953443148000,15.96014794921875,30.30000114440918,-8.02500057220459,-37.78125
1697619953463150600,15.980150634765625,30.825000762939453,-7.837500095367432,-37.76250076293945
1697619953483149300,16.0001494140625,30.918750762939453,-8.456250190734863,-37.78125
1697619953503144400,16.02014453125,31.125001907348633,-7.743750095367432,-37.85625076293945
1697619953523148300,16.040148193359375,30.281251907348633,-7.931250095367432,-38.08125305175781
1697619953543136300,16.06013623046875,31.23750114440918,-7.931250095367432,-38.0625
1697619953563142100,16.08014208984375,30.918750762939453,-8.006250381469727,-37.57500076293945
1697619953583154400,16.100154541015623,31.125001907348633,-8.362500190734863,-37.462501525878906
1697619953603148500,16.1201484375,30.918750762939453,-8.193750381469727,-37.98750305175781
1697619953623151400,16.1401513671875,31.012500762939453,-7.931250095367432,-37.875
1697619953643149300,16.1601494140625,30.918750762939453,-7.931250095367432,-37.76250076293945
1697619953663166200,16.180166259765624,30.918750762939453,-7.931250095367432,-37.76250076293945
1697619953683175200,16.200175048828125,30.918750762939453,-7.837500095367432,-37.76250076293945
1697619953703170600,16.220170654296876,30.825000762939453,-7.743750095367432,-37.462501525878906
1697619953723180500,16.2401806640625,31.23750114440918,-8.02500057220459,-37.875
1697619953743172400,16.26017236328125,30.618751525878906,-7.837500095367432,-37.96875
1697619953763172900,16.2801728515625,31.012500762939453,-7.837500095367432,-37.85625076293945
1697619953783180300,16.30018017578125,31.125001907348633,-8.100000381469727,-37.76250076293945
1697619953803170600,16.320170654296874,30.937501907348633,-8.006250381469727,-37.462501525878906
1697619953823169800,16.340169677734377,30.825000762939453,-7.931250095367432,-37.875
1697619953843165200,16.360165283203123,30.506250381469727,-7.762500286102295,-38.36250305175781
1697619953863168800,16.380168701171876,31.012500762939453,-8.02500057220459,-37.875
1697619953883167700,16.400167724609375,31.012500762939453,-7.931250095367432,-37.875
1697619953903156200,16.42015625,30.618751525878906,-8.006250381469727,-37.368751525878906
1697619953923161300,16.440161376953125,30.712501525878906,-7.931250095367432,-37.96875
1697619953943150300,16.460150390625,30.918750762939453,-7.912500381469727,-37.66875076293945
1697619953963160600,16.48016064453125,30.825000762939453,-7.743750095367432,-37.462501525878906
1697619953983164700,16.50016455078125,31.443750381469727,-8.193750381469727,-37.66875076293945
1697619954003164200,16.5201640625,30.918750762939453,-8.287500381469727,-37.57500076293945
1697619954023170600,16.540170654296876,31.125001907348633,-8.193750381469727,-37.96875
1697619954043171800,16.560171875,30.618751525878906,-8.02500057220459,-37.98750305175781
1697619954063174000,16.580173828125,31.23750114440918,-8.006250381469727,-37.16250228881836
1697619954083177000,16.600177001953124,30.618751525878906,-8.287500381469727,-37.48125076293945
1697619954103167200,16.620167236328125,31.012500762939453,-8.456250190734863,-37.6875
1697619954123174400,16.64017431640625,30.618751525878906,-8.11875057220459,-37.875
1697619954143157000,16.660156982421874,30.918750762939453,-8.643750190734863,-37.78125
1697619954163150800,16.68015087890625,30.506250381469727,-8.381250381469727,-37.89375305175781
1697619954183172400,16.70017236328125,30.618751525878906,-8.268750190734863,-37.38750076293945
1697619954203159000,16.720158935546873,31.33125114440918,-8.643750190734863,-37.875
1697619954223170600,16.740170654296875,31.443750381469727,-8.625,-37.48125076293945
1697619954243164400,16.760164306640625,30.281251907348633,-8.287500381469727,-37.89375305175781
1697619954263166700,16.780166748046874,30.618751525878906,-8.287500381469727,-37.48125076293945
1697619954283176000,16.800176025390623,30.825000762939453,-8.006250381469727,-37.462501525878906
1697619954303171600,16.820171630859374,30.093751907348633,-8.287500381469727,-37.6875
1697619954323171000,16.840171142578125,30.39375114440918,-8.11875057220459,-37.98750305175781
1697619954343166200,16.860166259765624,30.39375114440918,-8.456250190734863,-37.78125
1697619954363169800,16.880169677734376,30.39375114440918,-8.456250190734863,-37.6875
1697619954383168500,16.90016845703125,30.30000114440918,-8.362500190734863,-37.78125
1697619954403163600,16.92016357421875,30.39375114440918,-8.100000381469727,-37.6875
1697619954423167000,16.9401669921875,30.618751525878906,-8.100000381469727,-37.462501525878906
1697619954443165700,16.960165771484377,30.618751525878906,-8.456250190734863,-37.57500076293945
1697619954463171800,16.980171875,30.20625114440918,-8.006250381469727,-37.48125076293945
1697619954483172900,17.0001728515625,30.281251907348633,-8.193750381469727,-38.08125305175781
1697619954503162600,17.02016259765625,30.506250381469727,-8.287500381469727,-37.875
1697619954523168500,17.04016845703125,30.712501525878906,-8.100000381469727,-37.57500076293945
1697619954543157800,17.06015771484375,30.618751525878906,-8.268750190734863,-37.181251525878906
1697619954563168300,17.080168212890626,30.918750762939453,-8.100000381469727,-37.76250076293945
1697619954583172400,17.10017236328125,30.825000762939453,-7.912500381469727,-37.66875076293945
1697619954603171300,17.12017138671875,30.39375114440918,-8.11875057220459,-38.17500305175781
1697619954623166500,17.14016650390625,30.712501525878906,-7.743750095367432,-37.76250076293945
1697619954643158500,17.160158447265626,30.39375114440918,-7.931250095367432,-37.66875076293945
1697619954663170800,17.1801708984375,30.39375114440918,-7.743750095367432,-37.76250076293945
1697619954683176400,17.200176513671874,30.506250381469727,-7.912500381469727,-37.57500076293945
1697619954703169500,17.22016943359375,30.618751525878906,-7.481250286102295,-37.462501525878906
1697619954723171600,17.240171630859376,30.825000762939453,-8.081250190734863,-37.368751525878906
1697619954743165000,17.2601650390625,31.125001907348633,-7.912500381469727,-37.556251525878906
1697619954763166700,17.280166748046874,30.506250381469727,-7.837500095367432,-37.76250076293945
1697619954783175400,17.300175537109375,30.30000114440918,-7.387500286102295,-37.556251525878906
1697619954803159600,17.32015966796875,30.39375114440918,-8.11875057220459,-37.78125
1697619954823154200,17.340154296875,30.712501525878906,-7.837500095367432,-37.66875076293945
1697619954843164000,17.360163818359375,30.30000114440918,-7.668750286102295,-37.76250076293945
1697619954863150600,17.380150634765624,30.712501525878906,-7.912500381469727,-37.462501525878906
1697619954883154400,17.400154541015624,30.618751525878906,-7.743750095367432,-37.556251525878906
1697619954903146500,17.420146484375,30.618751525878906,-7.481250286102295,-38.15625
1697619954923155200,17.4401552734375,30.618751525878906,-7.762500286102295,-37.96875
1697619954943157800,17.46015771484375,30.30000114440918,-7.743750095367432,-37.66875076293945
1697619954963167500,17.48016748046875,30.187501907348633,-7.931250095367432,-37.98750305175781
1697619954983170600,17.500170654296873,30.39375114440918,-7.481250286102295,-37.85625076293945
1697619955003168800,17.520168701171876,30.20625114440918,-7.743750095367432,-37.66875076293945
1697619955023174100,17.540174072265625,30.712501525878906,-7.818750381469727,-37.16250228881836
1697619955043162600,17.56016259765625,30.712501525878906,-7.743750095367432,-37.76250076293945
1697619955063172000,17.580172119140624,30.618751525878906,-7.575000286102295,-37.462501525878906
1697619955083175200,17.600175048828124,30.712501525878906,-7.668750286102295,-37.556251525878906
1697619955103166000,17.620166015625,30.618751525878906,-7.837500095367432,-37.875
1697619955123173400,17.64017333984375,30.618751525878906,-7.575000286102295,-37.556251525878906
1697619955143163600,17.66016357421875,30.20625114440918,-7.668750286102295,-37.66875076293945
1697619955163174700,17.680174560546874,30.712501525878906,-7.668750286102295,-37.85625076293945
1697619955183179300,17.70017919921875,30.825000762939453,-7.912500381469727,-37.57500076293945
1697619955203167200,17.720167236328123,31.031251907348633,-7.931250095367432,-37.76250076293945
1697619955223198700,17.74019873046875,30.712501525878906,-7.668750286102295,-37.85625076293945
1697619955243196700,17.76019677734375,30.618751525878906,-7.837500095367432,-37.66875076293945
1697619955263190000,17.78018994140625,30.825000762939453,-7.762500286102295,-37.96875
1697619955283191300,17.80019140625,30.712501525878906,-7.668750286102295,-37.66875076293945
1697619955303181600,17.820181640625,30.825000762939453,-7.668750286102295,-37.76250076293945
1697619955323176400,17.840176513671874,30.506250381469727,-7.575000286102295,-37.76250076293945
1697619955343168500,17.86016845703125,30.506250381469727,-7.575000286102295,-37.96875
1697619955363169800,17.880169677734376,30.30000114440918,-7.668750286102295,-37.96875
1697619955383159600,17.90015966796875,30.618751525878906,-7.575000286102295,-37.76250076293945
1697619955403163400,17.920163330078125,30.39375114440918,-7.743750095367432,-37.875
1697619955423166500,17.94016650390625,30.39375114440918,-7.837500095367432,-37.76250076293945
1697619955443165000,17.9601650390625,30.825000762939453,-8.193750381469727,-37.462501525878906
1697619955463163600,17.98016357421875,31.125001907348633,-7.931250095367432,-37.76250076293945
1697619955483159300,18.0001591796875,30.712501525878906,-8.02500057220459,-37.96875
1697619955503151400,18.0201513671875,30.618751525878906,-8.081250190734863,-37.06875228881836
1697619955523158800,18.04015869140625,30.506250381469727,-7.837500095367432,-37.57500076293945
1697619955543147500,18.0601474609375,29.887500762939453,-8.02500057220459,-37.57500076293945
1697619955563149600,18.080149658203126,29.981250762939453,-8.11875057220459,-38.28750228881836
1697619955583159300,18.1001591796875,30.30000114440918,-8.456250190734863,-37.6875
1697619955603151400,18.1201513671875,30.39375114440918,-8.11875057220459,-37.78125
1697619955623163600,18.14016357421875,30.39375114440918,-7.762500286102295,-37.96875
1697619955643157800,18.16015771484375,30.093751907348633,-8.02500057220459,-37.98750305175781
1697619955663171600,18.180171630859373,30.506250381469727,-7.912500381469727,-37.57500076293945
1697619955683178500,18.200178466796874,30.39375114440918,-8.193750381469727,-37.875
1697619955703171800,18.220171875,30.39375114440918,-8.362500190734863,-37.78125
1697619955723180800,18.240180908203126,30.506250381469727,-8.643750190734863,-37.89375305175781
1697619955743171800,18.260171875,29.887500762939453,-8.02500057220459,-37.98750305175781
1697619955763171800,18.280171875,30.825000762939453,-8.287500381469727,-37.6875
1697619955783179000,18.300178955078124,30.506250381469727,-8.175000190734863,-37.275001525878906
1697619955803169300,18.320169189453125,30.918750762939453,-8.193750381469727,-37.57500076293945
1697619955823168800,18.340168701171876,30.093751907348633,-8.287500381469727,-37.89375305175781
1697619955843164200,18.3601640625,30.39375114440918,-8.193750381469727,-37.57500076293945
1697619955863168000,18.38016796875,30.712501525878906,-8.643750190734863,-37.78125
1697619955883167200,18.400167236328127,30.30000114440918,-8.643750190734863,-37.59375
1697619955903155000,18.420155029296875,30.712501525878906,-8.362500190734863,-37.6875
1697619955923160300,18.440160400390624,30.39375114440918,-8.362500190734863,-37.48125076293945
1697619955943160800,18.460160888671876,30.506250381469727,-8.381250381469727,-37.89375305175781
1697619955963168800,18.480168701171873,30.281251907348633,-8.381250381469727,-37.98750305175781
1697619955983170600,18.500170654296873,29.887500762939453,-8.362500190734863,-37.6875
1697619956003168000,18.52016796875,30.187501907348633,-8.362500190734863,-37.78125
1697619956023172900,18.5401728515625,30.093751907348633,-8.475000381469727,-37.89375305175781
1697619956043165200,18.560165283203126,30.39375114440918,-8.193750381469727,-37.875
1697619956063165400,18.58016552734375,30.506250381469727,-8.100000381469727,-37.6875
1697619956083137500,18.600137451171875,30.20625114440918,-8.100000381469727,-37.48125076293945
1697619956103137300,18.62013720703125,29.887500762939453,-8.381250381469727,-37.78125
1697619956123147500,18.6401474609375,30.506250381469727,-8.53125,-37.38750076293945
1697619956143138000,18.660137939453126,30.093751907348633,-8.362500190734863,-37.78125
1697619956163138300,18.68013818359375,30.39375114440918,-8.11875057220459,-38.28750228881836
1697619956183151900,18.70015185546875,30.506250381469727,-8.193750381469727,-37.98750305175781
1697619956203141600,18.7201416015625,30.093751907348633,-8.193750381469727,-37.78125
1697619956223159600,18.74015966796875,30.712501525878906,-8.193750381469727,-37.875
1697619956243158300,18.760158203125,30.806251525878906,-7.931250095367432,-37.96875
1697619956263164200,18.7801640625,29.887500762939453,-8.11875057220459,-37.6875
1697619956283175700,18.80017578125,30.693750381469727,-8.568750381469727,-38.19375228881836
1697619956303177200,18.82017724609375,30.712501525878906,-8.11875057220459,-37.875
1697619956323176700,18.8401767578125,30.187501907348633,-8.193750381469727,-37.6875
1697619956343171300,18.86017138671875,29.981250762939453,-8.02500057220459,-37.78125
1697619956363174100,18.880174072265625,30.39375114440918,-7.931250095367432,-37.875
1697619956383172000,18.900172119140624,30.187501907348633,-8.381250381469727,-37.89375305175781
1697619956403166500,18.92016650390625,30.093751907348633,-8.11875057220459,-37.98750305175781
1697619956423169000,18.9401689453125,30.187501907348633,-8.21250057220459,-38.28750228881836
1697619956443167000,18.9601669921875,29.981250762939453,-7.687500476837158,-38.38125228881836
1697619956463172600,18.980172607421874,30.187501907348633,-8.193750381469727,-37.78125
1697619956483172900,19.0001728515625,30.506250381469727,-8.11875057220459,-37.875
1697619956503161600,19.02016162109375,30.712501525878906,-8.287500381469727,-38.17500305175781
1697619956523167500,19.04016748046875,30.618751525878906,-7.762500286102295,-38.0625
1697619956543156700,19.06015673828125,30.806251525878906,-8.11875057220459,-37.98750305175781
1697619956563167200,19.080167236328126,30.187501907348633,-8.02500057220459,-37.875
1697619956583171600,19.100171630859375,30.806251525878906,-7.856250286102295,-38.36250305175781
1697619956603170800,19.1201708984375,30.187501907348633,-7.762500286102295,-37.96875
1697619956623166200,19.140166259765625,30.506250381469727,-8.02500057220459,-38.17500305175781
1697619956643158300,19.160158203125,30.712501525878906,-7.931250095367432,-38.17500305175781
1697619956663170800,19.1801708984375,29.775001525878906,-7.931250095367432,-38.19375228881836
1697619956683176400,19.200176513671874,30.30000114440918,-7.575000286102295,-37.96875
1697619956703169300,19.220169189453124,31.012500762939453,-7.931250095367432,-37.96875
1697619956723172600,19.240172607421876,30.937501907348633,-7.837500095367432,-37.462501525878906
1697619956743165700,19.260165771484374,30.39375114440918,-7.931250095367432,-37.98750305175781
1697619956763167500,19.28016748046875,30.187501907348633,-8.287500381469727,-37.78125
1697619956783168800,19.300168701171874,30.806251525878906,-8.02500057220459,-38.0625
1697619956803154400,19.320154541015626,30.825000762939453,-8.193750381469727,-37.78125
1697619956823125500,19.34012548828125,31.23750114440918,-8.193750381469727,-37.875
1697619956843127800,19.3601279296875,30.39375114440918,-8.193750381469727,-37.6875
1697619956863123200,19.380123291015625,30.20625114440918,-7.837500095367432,-37.462501525878906
1697619956883135500,19.400135498046875,30.712501525878906,-8.193750381469727,-37.462501525878906
1697619956903134700,19.420134765625,31.125001907348633,-8.193750381469727,-38.17500305175781
1697619956923148500,19.4401484375,29.887500762939453,-7.931250095367432,-37.98750305175781
1697619956943155000,19.460155029296875,29.887500762939453,-8.193750381469727,-37.6875
1697619956963167500,19.48016748046875,30.618751525878906,-8.02500057220459,-37.98750305175781
1697619956983172400,19.50017236328125,31.012500762939453,-8.11875057220459,-38.17500305175781
1697619957003171300,19.52017138671875,30.093751907348633,-8.11875057220459,-37.98750305175781
1697619957023177200,19.54017724609375,30.712501525878906,-8.287500381469727,-38.08125305175781
1697619957043165700,19.560165771484375,30.39375114440918,-8.287500381469727,-37.78125
1697619957063175000,19.5801748046875,30.712501525878906,-8.100000381469727,-37.66875076293945
1697619957083177700,19.600177734375,30.806251525878906,-8.193750381469727,-37.875
1697619957103168800,19.620168701171874,30.600000381469727,-8.550000190734863,-37.89375305175781
1697619957123175700,19.64017578125,30.618751525878906,-8.362500190734863,-37.78125
1697619957143165400,19.66016552734375,30.712501525878906,-8.193750381469727,-37.57500076293945
1697619957163176000,19.680176025390626,30.918750762939453,-8.381250381469727,-37.98750305175781
1697619957183180300,19.70018017578125,31.125001907348633,-8.53125,-37.57500076293945
1697619957203167700,19.720167724609375,30.39375114440918,-8.193750381469727,-37.48125076293945
1697619957223176400,19.740176513671877,25.931251525878906,-6.806250095367432,-38.118751525878906
1697619957243179300,19.76017919921875,30.618751525878906,-8.287500381469727,-37.6875
1697619957263177200,19.78017724609375,29.381250381469727,-8.34375,-36.58125305175781
1697619957283182600,19.8001826171875,29.475000381469727,-8.11875057220459,-37.78125
1697619957303175400,19.820175537109375,29.981250762939453,-8.02500057220459,-37.98750305175781
1697619957323172900,19.8401728515625,30.187501907348633,-8.643750190734863,-37.80000305175781
1697619957343166700,19.860166748046876,29.043750762939453,-8.193750381469727,-37.80000305175781
1697619957363169300,19.880169189453124,27.187501907348633,-7.500000476837158,-37.91250228881836
1697619957383161000,19.9001611328125,30.281251907348633,-8.456250190734863,-37.78125
1697619957403157500,19.920157470703124,30.20625114440918,-8.100000381469727,-37.57500076293945
1697619957423162400,19.940162353515625,29.887500762939453,-7.837500095367432,-37.6875
1697619957443162600,19.96016259765625,30.093751907348633,-7.931250095367432,-37.78125
1697619957463162400,19.980162353515624,30.39375114440918,-8.02500057220459,-37.78125
1697619957483158000,20.000157958984374,30.281251907348633,-8.21250057220459,-38.493751525878906
1697619957503150800,20.02015087890625,29.887500762939453,-7.856250286102295,-38.08125305175781
1697619957523152600,20.040152587890624,30.506250381469727,-7.837500095367432,-37.875
1697619957543146500,20.060146484375,30.281251907348633,-7.575000286102295,-38.17500305175781
1697619957563160600,20.08016064453125,30.39375114440918,-8.11875057220459,-37.875
1697619957583167700,20.100167724609374,29.981250762939453,-8.02500057220459,-38.19375228881836
1697619957603157800,20.12015771484375,30.918750762939453,-8.02500057220459,-37.96875
1697619957623168300,20.140168212890625,29.887500762939453,-8.11875057220459,-38.08125305175781
1697619957643160800,20.160160888671875,30.075000762939453,-7.687500476837158,-38.28750228881836
1697619957663173600,20.180173583984374,30.39375114440918,-7.856250286102295,-38.28750228881836
1697619957683179300,20.20017919921875,29.568750381469727,-8.02500057220459,-38.08125305175781
1697619957703171800,20.220171875,28.950000762939453,-7.125000476837158,-37.66875076293945
1697619957723180000,20.240179931640625,29.775001525878906,-7.668750286102295,-37.57500076293945
1697619957743171300,20.26017138671875,30.712501525878906,-8.456250190734863,-37.6875
1697619957763171300,20.28017138671875,30.20625114440918,-7.912500381469727,-37.462501525878906
1697619957783178500,20.300178466796876,30.412500381469727,-7.912500381469727,-37.275001525878906
1697619957803168800,20.320168701171873,30.187501907348633,-7.931250095367432,-37.98750305175781
1697619957823168000,20.34016796875,30.30000114440918,-8.287500381469727,-37.78125
1697619957843163600,20.36016357421875,30.281251907348633,-8.475000381469727,-38.306251525878906
1697619957863167700,20.380167724609375,29.662500381469727,-8.475000381469727,-38.306251525878906
1697619957883167000,20.4001669921875,30.618751525878906,-8.362500190734863,-37.57500076293945
1697619957903155200,20.4201552734375,29.775001525878906,-8.475000381469727,-38.19375228881836
1697619957923160600,20.44016064453125,30.281251907348633,-7.856250286102295,-38.17500305175781
1697619957943149800,20.46014990234375,29.156251907348633,-8.21250057220459,-38.10000228881836
1697619957963160300,20.480160400390623,30.937501907348633,-8.268750190734863,-37.368751525878906
1697619957983164700,20.50016455078125,30.093751907348633,-8.287500381469727,-37.89375305175781
1697619958003164000,20.520163818359375,29.868751525878906,-8.21250057220459,-38.19375228881836
1697619958023170600,20.540170654296876,28.931251525878906,-8.02500057220459,-38.10000228881836
1697619958043163600,20.56016357421875,27.712501525878906,-7.743750095367432,-37.40625
1697619958063158800,20.58015869140625,28.443750381469727,-7.312500476837158,-37.38750076293945
1697619958083154400,20.600154541015623,30.075000762939453,-8.11875057220459,-38.19375228881836
1697619958103152400,20.62015234375,29.568750381469727,-8.11875057220459,-37.78125
1697619958123156700,20.64015673828125,30.093751907348633,-8.006250381469727,-36.97500228881836
1697619958143147800,20.660147705078124,30.39375114440918,-8.11875057220459,-37.98750305175781
1697619958163145200,20.680145263671875,30.39375114440918,-8.193750381469727,-37.57500076293945
1697619958183151000,20.700151123046876,30.600000381469727,-8.643750190734863,-37.89375305175781
1697619958203143000,20.720142822265625,30.825000762939453,-8.193750381469727,-37.78125
1697619958223160000,20.74016015625,29.775001525878906,-8.30625057220459,-38.10000228881836
1697619958243157800,20.76015771484375,30.600000381469727,-8.381250381469727,-37.98750305175781
1697619958263163600,20.78016357421875,29.26875114440918,-8.11875057220459,-37.89375305175781
1697619958283175000,20.8001748046875,30.825000762939453,-8.362500190734863,-37.6875
1697619958303174000,20.820173828125,30.20625114440918,-7.837500095367432,-37.66875076293945
1697619958323174000,20.840173828125,30.600000381469727,-8.287500381469727,-38.19375228881836
1697619958343169300,20.860169189453124,30.712501525878906,-8.362500190734863,-37.38750076293945
1697619958363172900,20.8801728515625,30.618751525878906,-8.362500190734863,-37.875
1697619958383171300,20.90017138671875,29.775001525878906,-8.11875057220459,-37.78125
1697619958403166000,20.920166015625,29.043750762939453,-7.837500095367432,-37.59375
1697619958423168800,20.940168701171874,29.775001525878906,-8.381250381469727,-38.10000228881836
1697619958443167000,20.9601669921875,30.618751525878906,-8.287500381469727,-37.875
1697619958463172900,20.9801728515625,30.412500381469727,-8.100000381469727,-37.48125076293945
1697619958483173400,21.00017333984375,30.39375114440918,-8.287500381469727,-37.6875
1697619958503162600,21.02016259765625,30.187501907348633,-8.362500190734863,-37.78125
1697619958523168500,21.04016845703125,30.806251525878906,-8.287500381469727,-38.08125305175781
1697619958543157800,21.06015771484375,29.662500381469727,-8.02500057220459,-37.78125
1697619958563168000,21.08016796875,30.825000762939453,-8.11875057220459,-37.875
1697619958583172000,21.100172119140623,30.825000762939453,-8.006250381469727,-37.66875076293945
1697619958603171000,21.120171142578126,30.39375114440918,-8.287500381469727,-37.78125
1697619958623166200,21.140166259765625,30.618751525878906,-8.362500190734863,-37.48125076293945
1697619958643169300,21.160169189453125,30.39375114440918,-8.02500057220459,-38.08125305175781
1697619958663168000,21.18016796875,30.187501907348633,-8.362500190734863,-37.59375
1697619958683174100,21.200174072265625,30.712501525878906,-8.287500381469727,-38.17500305175781
1697619958703167700,21.220167724609375,30.506250381469727,-8.193750381469727,-37.48125076293945
1697619958723169300,21.240169189453123,30.918750762939453,-7.837500095367432,-37.66875076293945
1697619958743163100,21.2601630859375,30.39375114440918,-8.456250190734863,-37.78125
1697619958763165700,21.280165771484373,30.187501907348633,-8.11875057220459,-37.6875
1697619958783167200,21.300167236328125,30.506250381469727,-7.837500095367432,-37.875
1697619958803153400,21.3201533203125,30.506250381469727,-8.02500057220459,-37.78125
1697619958823150300,21.340150390625,29.775001525878906,-8.11875057220459,-37.78125
1697619958843143400,21.360143310546874,30.093751907348633,-8.287500381469727,-37.48125076293945
1697619958863146500,21.380146484375,30.39375114440918,-7.837500095367432,-37.66875076293945
1697619958883152400,21.40015234375,30.918750762939453,-8.362500190734863,-37.78125
1697619958903146500,21.420146484375,30.412500381469727,-7.668750286102295,-37.462501525878906
1697619958923155700,21.44015576171875,31.012500762939453,-8.100000381469727,-37.76250076293945
1697619958943159000,21.460158935546875,30.918750762939453,-8.53125,-37.48125076293945
1697619958963169000,21.4801689453125,30.918750762939453,-8.193750381469727,-37.875
1697619958983172000,21.500172119140625,30.806251525878906,-7.931250095367432,-37.96875
1697619959003170300,21.52017041015625,30.281251907348633,-8.193750381469727,-37.98750305175781
1697619959023175700,21.54017578125,30.712501525878906,-8.287500381469727,-37.78125
1697619959043164000,21.560163818359374,30.187501907348633,-8.287500381469727,-37.59375
1697619959063173000,21.580173095703124,30.712501525878906,-8.456250190734863,-37.78125
1697619959083176000,21.600176025390624,30.412500381469727,-8.193750381469727,-37.38750076293945
1697619959103168300,21.620168212890626,30.712501525878906,-8.381250381469727,-38.19375228881836
1697619959123175200,21.640175048828127,31.125001907348633,-8.362500190734863,-37.462501525878906
1697619959143165000,21.6601650390625,30.39375114440918,-8.11875057220459,-37.98750305175781
1697619959163175400,21.680175537109374,30.39375114440918,-8.287500381469727,-38.19375228881836
1697619959183179800,21.7001796875,30.806251525878906,-8.568750381469727,-38.08125305175781
1697619959203167500,21.72016748046875,30.506250381469727,-8.287500381469727,-37.57500076293945
1697619959223176400,21.740176513671877,30.712501525878906,-8.456250190734863,-37.78125
1697619959243179300,21.76017919921875,30.918750762939453,-8.643750190734863,-37.89375305175781
1697619959263177000,21.780177001953124,30.918750762939453,-8.006250381469727,-37.66875076293945
1697619959283182300,21.800182373046876,30.39375114440918,-8.362500190734863,-37.78125
1697619959303175200,21.820175048828126,28.725000381469727,-7.950000286102295,-38.51250076293945
1697619959323172600,21.840172607421874,30.187501907348633,-7.856250286102295,-37.98750305175781
1697619959343166700,21.860166748046876,30.187501907348633,-8.381250381469727,-38.28750228881836
1697619959363169300,21.880169189453124,30.39375114440918,-8.02500057220459,-38.08125305175781
1697619959383160600,21.90016064453125,29.981250762939453,-8.193750381469727,-37.78125
1697619959403157200,21.9201572265625,30.075000762939453,-8.193750381469727,-38.08125305175781
1697619959423162400,21.940162353515625,29.662500381469727,-8.11875057220459,-37.98750305175781
1697619959443162400,21.960162353515624,30.39375114440918,-8.11875057220459,-38.17500305175781
1697619959463162000,21.980162109375,29.043750762939453,-8.40000057220459,-38.60625076293945
1697619959483158500,22.000158447265626,29.887500762939453,-8.11875057220459,-37.89375305175781
1697619959503151400,22.0201513671875,30.075000762939453,-7.856250286102295,-38.17500305175781
1697619959523153000,22.04015283203125,30.093751907348633,-8.11875057220459,-37.98750305175781
1697619959543146800,22.060146728515626,30.806251525878906,-8.381250381469727,-38.08125305175781
1697619959563160800,22.080160888671877,29.662500381469727,-8.381250381469727,-37.80000305175781
1697619959583167700,22.100167724609374,30.39375114440918,-8.287500381469727,-37.98750305175781
1697619959603157800,22.12015771484375,30.093751907348633,-8.02500057220459,-37.875
1697619959623168300,22.140168212890625,29.981250762939453,-8.11875057220459,-37.89375305175781
1697619959643160800,22.160160888671875,29.662500381469727,-7.931250095367432,-38.19375228881836
1697619959663173600,22.180173583984374,29.981250762939453,-7.837500095367432,-37.57500076293945
1697619959683179300,22.20017919921875,30.093751907348633,-7.931250095367432,-38.08125305175781
1697619959703172600,22.220172607421876,29.775001525878906,-8.287500381469727,-37.6875
1697619959723180800,22.240180908203126,29.887500762939453,-8.193750381469727,-37.98750305175781
1697619959743171600,22.260171630859375,29.775001525878906,-8.287500381469727,-38.00625228881836
1697619959763171300,22.28017138671875,29.981250762939453,-8.02500057220459,-38.08125305175781
1697619959783178500,22.300178466796876,28.61250114440918,-8.40000057220459,-38.51250076293945
1697619959803168800,22.320168701171873,30.506250381469727,-8.456250190734863,-37.48125076293945
1697619959823168000,22.34016796875,29.568750381469727,-8.30625057220459,-38.306251525878906
1697619959843163600,22.36016357421875,30.187501907348633,-8.02500057220459,-37.98750305175781
1697619959863167700,22.380167724609375,30.30000114440918,-8.006250381469727,-37.48125076293945
1697619959883166700,22.400166748046875,30.187501907348633,-8.30625057220459,-38.19375228881836
1697619959903157200,22.4201572265625,30.30000114440918,-7.743750095367432,-37.875
1697619959923162000,22.440162109375,29.887500762939453,-8.287500381469727,-38.08125305175781
1697619959943150800,22.46015087890625,29.775001525878906,-8.11875057220459,-37.6875
1697619959963161000,22.4801611328125,30.281251907348633,-8.287500381469727,-37.98750305175781
1697619959983165200,22.500165283203124,29.568750381469727,-8.11875057220459,-38.08125305175781
1697619960003164200,22.5201640625,30.712501525878906,-8.193750381469727,-37.98750305175781
1697619960023170600,22.540170654296876,29.568750381469727,-8.02500057220459,-37.78125
1697619960043165700,22.560165771484375,30.187501907348633,-8.362500190734863,-37.6875
1697619960063171300,22.58017138671875,30.075000762939453,-8.475000381469727,-38.306251525878906
1697619960083164000,22.600163818359373,30.187501907348633,-8.287500381469727,-37.98750305175781
1697619960103157800,22.62015771484375,29.26875114440918,-7.931250095367432,-37.89375305175781
1697619960123160000,22.64016015625,30.187501907348633,-8.475000381469727,-38.10000228881836
1697619960143146500,22.660146484375,29.250001907348633,-7.856250286102295,-38.493751525878906
1697619960163153200,22.680153076171877,29.887500762939453,-8.21250057220459,-38.08125305175781
1697619960183158800,22.70015869140625,30.093751907348633,-8.193750381469727,-37.78125
1697619960203153000,22.72015283203125,30.093751907348633,-8.11875057220459,-37.98750305175781
1697619960223167000,22.7401669921875,29.887500762939453,-8.193750381469727,-37.78125
1697619960243162600,22.76016259765625,30.187501907348633,-8.11875057220459,-37.98750305175781
1697619960263166000,22.780166015625,30.412500381469727,-8.100000381469727,-37.48125076293945
1697619960283176000,22.800176025390623,30.187501907348633,-8.30625057220459,-38.28750228881836
1697619960303172000,22.820172119140626,30.187501907348633,-8.287500381469727,-37.78125
1697619960323171800,22.840171875,30.187501907348633,-8.11875057220459,-37.6875
1697619960343167200,22.860167236328124,29.568750381469727,-8.02500057220459,-37.78125
1697619960363171000,22.880171142578124,30.281251907348633,-8.02500057220459,-37.98750305175781
1697619960383169500,22.90016943359375,29.662500381469727,-7.931250095367432,-37.78125
1697619960403164700,22.92016455078125,30.506250381469727,-8.287500381469727,-37.875
1697619960423167700,22.940167724609374,30.075000762939453,-8.193750381469727,-38.08125305175781
1697619960443166200,22.960166259765625,29.568750381469727,-7.931250095367432,-38.08125305175781
1697619960463172400,22.98017236328125,30.30000114440918,-8.006250381469727,-37.57500076293945
1697619960483173000,23.000173095703126,30.30000114440918,-8.193750381469727,-37.6875
1697619960503162000,23.020162109375,29.36250114440918,-8.287500381469727,-38.00625228881836
1697619960523156700,23.04015673828125,30.281251907348633,-8.11875057220459,-38.17500305175781
1697619960543148500,23.0601484375,30.30000114440918,-7.931250095367432,-37.78125
1697619960563161300,23.080161376953125,30.506250381469727,-8.02500057220459,-38.08125305175781
1697619960583167500,23.10016748046875,30.693750381469727,-8.21250057220459,-38.28750228881836
1697619960603168300,23.120168212890626,30.093751907348633,-7.837500095367432,-37.78125
1697619960623164700,23.14016455078125,29.250001907348633,-7.931250095367432,-38.08125305175781
1697619960643168800,23.160168701171877,30.093751907348633,-8.11875057220459,-37.78125
1697619960663168000,23.18016796875,29.568750381469727,-8.137500762939453,-38.400001525878906
1697619960683174700,23.200174560546873,29.887500762939453,-8.11875057220459,-37.6875
1697619960703171600,23.220171630859376,30.187501907348633,-8.02500057220459,-37.78125
1697619960723172600,23.240172607421876,30.187501907348633,-8.737500190734863,-38.10000228881836
1697619960743165700,23.260165771484374,30.093751907348633,-8.193750381469727,-37.98750305175781
1697619960763167500,23.28016748046875,30.093751907348633,-8.193750381469727,-37.98750305175781
1697619960783185200,23.30018505859375,30.30000114440918,-8.193750381469727,-37.6875
1697619960803167500,23.32016748046875,30.093751907348633,-8.287500381469727,-37.6875
1697619960823160800,23.340160888671875,29.568750381469727,-8.11875057220459,-37.59375
1697619960843151600,23.360151611328124,30.187501907348633,-7.762500286102295,-38.08125305175781
1697619960863155000,23.380155029296876,29.775001525878906,-7.931250095367432,-37.78125
1697619960883157800,23.40015771484375,30.39375114440918,-8.287500381469727,-37.98750305175781
1697619960903149300,23.4201494140625,30.075000762939453,-8.287500381469727,-38.08125305175781
1697619960923157000,23.440156982421875,30.093751907348633,-8.006250381469727,-37.38750076293945
1697619960943159000,23.460158935546875,29.662500381469727,-8.11875057220459,-38.28750228881836
1697619960963168300,23.480168212890625,30.506250381469727,-7.931250095367432,-37.96875
1697619960983170800,23.5001708984375,29.981250762939453,-8.21250057220459,-38.38125228881836
1697619961003168800,23.520168701171876,30.187501907348633,-8.287500381469727,-37.78125
1697619961023174000,23.540173828125,29.775001525878906,-8.02500057220459,-37.89375305175781
1697619961043162400,23.560162353515626,30.506250381469727,-8.362500190734863,-37.78125
1697619961063171800,23.580171875,30.187501907348633,-8.287500381469727,-37.78125
1697619961083175000,23.6001748046875,29.775001525878906,-8.287500381469727,-38.00625228881836
1697619961103166700,23.620166748046874,30.39375114440918,-7.856250286102295,-38.28750228881836
1697619961123174000,23.640173828125,30.093751907348633,-8.193750381469727,-37.98750305175781
1697619961143164000,23.660163818359376,29.775001525878906,-8.362500190734863,-37.6875
1697619961163175000,23.6801748046875,30.093751907348633,-7.931250095367432,-37.98750305175781
1697619961183179500,23.700179443359374,29.568750381469727,-8.287500381469727,-37.89375305175781
1697619961203167200,23.720167236328123,30.30000114440918,-8.100000381469727,-37.6875
1697619961223176200,23.74017626953125,29.568750381469727,-8.02500057220459,-37.98750305175781
1697619961243179000,23.760178955078125,30.187501907348633,-8.11875057220459,-37.78125
1697619961263177200,23.78017724609375,30.187501907348633,-8.11875057220459,-37.78125
1697619961283182600,23.8001826171875,30.187501907348633,-8.362500190734863,-37.78125
1697619961303176000,23.820176025390627,29.662500381469727,-8.043750762939453,-38.38125228881836
1697619961323173400,23.84017333984375,30.281251907348633,-8.475000381469727,-37.89375305175781
1697619961343167200,23.860167236328124,30.187501907348633,-7.931250095367432,-37.78125
1697619961363171800,23.880171875,30.39375114440918,-8.193750381469727,-37.98750305175781
1697619961383163400,23.900163330078126,29.981250762939453,-8.11875057220459,-37.98750305175781
1697619961403159300,23.9201591796875,28.856250762939453,-7.931250095367432,-37.38750076293945
1697619961423164000,23.940163818359373,28.631250381469727,-7.762500286102295,-38.10000228881836
1697619961443155700,23.96015576171875,30.093751907348633,-8.11875057220459,-37.875
1697619961463157000,23.980156982421875,29.887500762939453,-8.362500190734863,-37.6875
1697619961483154200,24.000154296875,30.187501907348633,-8.30625057220459,-38.19375228881836
1697619961503148800,24.020148681640624,29.662500381469727,-8.193750381469727,-37.98750305175781
1697619961523151000,24.040151123046876,30.30000114440918,-8.100000381469727,-37.38750076293945
1697619961543145700,24.060145751953126,30.712501525878906,-8.287500381469727,-37.98750305175781
1697619961563160300,24.080160400390625,30.693750381469727,-8.11875057220459,-38.47500228881836
1697619961583167700,24.100167724609374,29.662500381469727,-8.21250057220459,-38.493751525878906
1697619961603158000,24.120157958984375,30.618751525878906,-8.362500190734863,-37.6875
1697619961623168800,24.140168701171874,29.662500381469727,-8.475000381469727,-38.10000228881836
1697619961643161300,24.160161376953123,30.806251525878906,-8.287500381469727,-37.98750305175781
1697619961663174100,24.180174072265626,30.39375114440918,-7.837500095367432,-37.875
1697619961683179800,24.2001796875,30.712501525878906,-8.02500057220459,-37.76250076293945
1697619961703175400,24.220175537109377,29.043750762939453,-7.856250286102295,-37.98750305175781
1697619961723183000,24.24018310546875,30.39375114440918,-7.931250095367432,-37.875
1697619961743173400,24.26017333984375,30.712501525878906,-8.006250381469727,-37.66875076293945
1697619961763172600,24.280172607421875,30.187501907348633,-8.11875057220459,-37.6875
1697619961783179300,24.30017919921875,30.712501525878906,-8.287500381469727,-37.98750305175781
1697619961803169000,24.3201689453125,30.712501525878906,-7.762500286102295,-38.0625
1697619961823168300,24.340168212890624,30.187501907348633,-8.193750381469727,-37.6875
1697619961843163600,24.36016357421875,30.281251907348633,-8.475000381469727,-37.89375305175781
1697619961863167500,24.38016748046875,30.30000114440918,-7.837500095367432,-37.66875076293945
1697619961883166500,24.40016650390625,30.20625114440918,-8.193750381469727,-37.57500076293945
1697619961903155000,24.420155029296875,30.281251907348633,-8.287500381469727,-37.89375305175781
1697619961923160300,24.440160400390624,30.618751525878906,-8.193750381469727,-37.57500076293945
1697619961943149600,24.460149658203125,29.26875114440918,-8.193750381469727,-37.89375305175781
1697619961963159800,24.480159912109375,30.618751525878906,-8.287500381469727,-37.6875
1697619961983164200,24.5001640625,30.918750762939453,-7.931250095367432,-37.875
1697619962003163400,24.520163330078127,30.918750762939453,-8.006250381469727,-37.66875076293945
1697619962023170000,24.540170166015624,31.23750114440918,-8.362500190734863,-37.76250076293945
1697619962043165400,24.56016552734375,30.806251525878906,-8.287500381469727,-37.875
1697619962063163600,24.58016357421875,30.618751525878906,-8.11875057220459,-37.875
1697619962083169300,24.600169189453126,30.618751525878906,-7.837500095367432,-37.76250076293945
1697619962103161900,24.620161865234376,28.856250762939453,-7.818750381469727,-36.58125305175781
1697619962123164400,24.640164306640624,30.187501907348633,-7.931250095367432,-37.875
1697619962143151000,24.660151123046877,30.506250381469727,-8.193750381469727,-37.57500076293945
1697619962163161900,24.680161865234375,30.506250381469727,-8.100000381469727,-37.57500076293945
1697619962183152000,24.700152099609376,30.39375114440918,-8.11875057220459,-37.875
1697619962203147500,24.7201474609375,30.506250381469727,-8.02500057220459,-38.08125305175781
1697619962223162600,24.74016259765625,30.712501525878906,-8.11875057220459,-37.875
1697619962243159000,24.760158935546876,30.825000762939453,-8.456250190734863,-37.57500076293945
1697619962263163600,24.78016357421875,28.950000762939453,-7.931250095367432,-37.6875
1697619962283174400,24.80017431640625,30.825000762939453,-7.837500095367432,-37.96875
1697619962303171000,24.820171142578126,30.712501525878906,-8.287500381469727,-37.875
1697619962323171300,24.84017138671875,31.012500762939453,-7.931250095367432,-38.17500305175781
1697619962343167200,24.860167236328124,31.031251907348633,-8.006250381469727,-37.66875076293945
1697619962363171000,24.880171142578124,30.712501525878906,-7.668750286102295,-37.85625076293945
1697619962383169800,24.900169677734375,30.412500381469727,-7.743750095367432,-37.57500076293945
1697619962403165000,24.9201650390625,30.712501525878906,-7.743750095367432,-37.556251525878906
1697619962423168000,24.94016796875,30.825000762939453,-7.837500095367432,-37.875
1697619962443166500,24.96016650390625,30.506250381469727,-7.743750095367432,-37.76250076293945
1697619962463172400,24.98017236328125,30.618751525878906,-8.006250381469727,-37.66875076293945
1697619962483173000,25.000173095703126,31.443750381469727,-7.912500381469727,-37.462501525878906
1697619962503162600,25.02016259765625,30.712501525878906,-7.912500381469727,-37.57500076293945
1697619962523157200,25.0401572265625,30.918750762939453,-8.11875057220459,-37.875
1697619962543149000,25.060149169921875,31.031251907348633,-8.006250381469727,-37.66875076293945
1697619962563161600,25.08016162109375,31.031251907348633,-7.837500095367432,-37.462501525878906
1697619962583167700,25.100167724609374,30.618751525878906,-7.837500095367432,-37.368751525878906
1697619962603157200,25.1201572265625,30.618751525878906,-7.575000286102295,-37.556251525878906
1697619962623167200,25.140167236328125,31.556251525878906,-7.912500381469727,-37.44375228881836
1697619962643171000,25.160171142578125,31.031251907348633,-7.931250095367432,-37.76250076293945
1697619962663170000,25.180170166015625,30.712501525878906,-7.931250095367432,-37.875
1697619962683176200,25.20017626953125,30.712501525878906,-7.912500381469727,-37.57500076293945
1697619962703169000,25.2201689453125,30.918750762939453,-7.668750286102295,-37.96875
1697619962723174100,25.240174072265624,31.33125114440918,-7.762500286102295,-38.15625
1697619962743166700,25.260166748046874,30.825000762939453,-7.575000286102295,-37.76250076293945
1697619962763168300,25.280168212890626,30.937501907348633,-7.743750095367432,-37.556251525878906
1697619962783169500,25.30016943359375,30.506250381469727,-7.762500286102295,-38.0625
1697619962803158000,25.320157958984375,30.618751525878906,-7.837500095367432,-37.875
1697619962823153700,25.340153564453125,30.187501907348633,-7.856250286102295,-38.38125228881836
1697619962843146200,25.360146240234375,30.918750762939453,-7.668750286102295,-37.66875076293945
1697619962863147800,25.380147705078127,30.39375114440918,-7.837500095367432,-37.66875076293945
1697619962883153200,25.400153076171875,30.712501525878906,-7.856250286102295,-38.0625
1697619962903146200,25.420146240234374,30.412500381469727,-7.650000095367432,-37.06875228881836
1697619962923155500,25.440155517578123,30.618751525878906,-7.837500095367432,-37.368751525878906
1697619962943158500,25.460158447265623,30.712501525878906,-7.743750095367432,-37.76250076293945
1697619962963168300,25.480168212890625,30.712501525878906,-7.762500286102295,-37.96875
1697619962983171600,25.500171630859374,30.506250381469727,-7.743750095367432,-37.76250076293945
1697619963003169500,25.52016943359375,30.506250381469727,-7.668750286102295,-38.17500305175781
1697619963023175000,25.5401748046875,30.825000762939453,-8.287500381469727,-37.48125076293945
1697619963043163100,25.5601630859375,30.918750762939453,-7.837500095367432,-37.875
1697619963063172600,25.580172607421876,30.506250381469727,-7.912500381469727,-37.368751525878906
1697619963083176000,25.600176025390624,30.618751525878906,-8.193750381469727,-37.48125076293945
1697619963103167000,25.6201669921875,31.23750114440918,-7.743750095367432,-37.76250076293945
1697619963123174100,25.640174072265626,30.506250381469727,-8.02500057220459,-37.66875076293945
1697619963143164200,25.6601640625,30.39375114440918,-8.11875057220459,-37.875
1697619963163175000,25.6801748046875,31.031251907348633,-7.668750286102295,-37.66875076293945
1697619963183179500,25.700179443359374,30.39375114440918,-7.668750286102295,-37.875
1697619963203167200,25.720167236328123,30.618751525878906,-7.575000286102295,-37.96875
1697619963223176200,25.74017626953125,30.712501525878906,-7.931250095367432,-37.875
1697619963243179000,25.760178955078125,30.825000762939453,-7.912500381469727,-37.57500076293945
1697619963263177000,25.780177001953124,30.937501907348633,-7.912500381469727,-37.16250228881836
1697619963283182600,25.8001826171875,30.712501525878906,-7.931250095367432,-37.66875076293945
1697619963303175200,25.820175048828126,29.475000381469727,-7.931250095367432,-37.59375
1697619963323172600,25.840172607421874,31.14375114440918,-7.912500381469727,-37.368751525878906
1697619963343166500,25.86016650390625,30.918750762939453,-7.668750286102295,-37.76250076293945
1697619963363163400,25.880163330078126,30.918750762939453,-7.668750286102295,-37.96875
1697619963383167200,25.900167236328127,30.506250381469727,-7.837500095367432,-37.875
1697619963403162600,25.92016259765625,30.20625114440918,-8.006250381469727,-37.48125076293945
1697619963423166200,25.940166259765626,29.981250762939453,-7.668750286102295,-37.57500076293945
1697619963443166200,25.960166259765625,30.39375114440918,-7.931250095367432,-37.875
1697619963463165000,25.9801650390625,29.36250114440918,-7.931250095367432,-38.08125305175781
1697619963483159600,26.00015966796875,30.618751525878906,-8.006250381469727,-37.462501525878906
1697619963503151900,26.02015185546875,30.506250381469727,-8.193750381469727,-37.875
1697619963523156000,26.040156005859377,30.918750762939453,-7.912500381469727,-37.556251525878906
1697619963543148800,26.060148681640626,30.412500381469727,-8.100000381469727,-37.38750076293945
1697619963563161900,26.080161865234373,30.412500381469727,-8.006250381469727,-37.462501525878906
1697619963583168500,26.10016845703125,30.825000762939453,-7.743750095367432,-37.76250076293945
1697619963603158000,26.120157958984375,30.618751525878906,-7.931250095367432,-37.96875
1697619963623168300,26.140168212890625,30.825000762939453,-7.743750095367432,-37.85625076293945
1697619963643160800,26.160160888671875,30.712501525878906,-7.481250286102295,-37.85625076293945
1697619963663173400,26.18017333984375,30.39375114440918,-8.02500057220459,-37.875
1697619963683179000,26.200178955078126,30.825000762939453,-7.837500095367432,-37.66875076293945
1697619963703172000,26.220172119140624,29.981250762939453,-8.100000381469727,-37.57500076293945
1697619963723180300,26.24018017578125,30.618751525878906,-7.743750095367432,-37.875
1697619963743171300,26.26017138671875,30.618751525878906,-7.743750095367432,-37.66875076293945
1697619963763171300,26.28017138671875,30.825000762939453,-7.743750095367432,-37.85625076293945
1697619963783178500,26.300178466796876,29.36250114440918,-8.02500057220459,-37.89375305175781
1697619963803168500,26.32016845703125,30.918750762939453,-7.856250286102295,-38.0625
1697619963823168000,26.34016796875,30.600000381469727,-8.193750381469727,-38.17500305175781
1697619963843163600,26.36016357421875,30.618751525878906,-7.931250095367432,-38.0625
1697619963863167500,26.38016748046875,30.506250381469727,-7.931250095367432,-38.17500305175781
1697619963883167000,26.4001669921875,30.30000114440918,-7.856250286102295,-37.98750305175781
1697619963903158800,26.42015869140625,30.30000114440918,-8.11875057220459,-37.875
1697619963923163400,26.440163330078125,30.506250381469727,-7.931250095367432,-38.28750228881836
