time,seconds_elapsed,z,y,x
1694680665470542000,0.1435419921875,-23.0625,-41.587501525878906,11.381250381469727
1694680665490546400,0.16354638671875,-23.493751525878906,-41.962501525878906,10.46250057220459
1694680665510559700,0.183559814453125,-24.750001907348633,-41.28750228881836,10.068750381469727
1694680665530584600,0.20358447265625,-24.356250762939453,-40.78125,8.662500381469727
1694680665550617300,0.223617431640625,-26.343751907348633,-41.32500076293945,8.325000762939453
1694680665570647800,0.243647705078125,-25.837501525878906,-40.29375076293945,6.937500476837158
1694680665590678300,0.26367822265625,-25.631250381469727,-41.45625305175781,6.712500095367432
1694680665610707000,0.28370703125,-25.537500381469727,-41.625,6.618750095367432
1694680665630715000,0.30371484375,-29.812501907348633,-40.44375228881836,4.96875
1694680665650727700,0.323727783203125,-25.98750114440918,-42.13125228881836,4.462500095367432
1694680665670735000,0.343735107421875,-26.625001907348633,-42,2.6437501907348633
1694680665690727200,0.36372705078125,-26.437501907348633,-42.54375076293945,1.9312500953674316
1694680665710714400,0.38371435546875,-29.36250114440918,-41.26875305175781,0.8062500357627869
1694680665730710300,0.403710205078125,-27.693750381469727,-41.681251525878906,1.125
1694680665750704600,0.42370458984375,-29.775001525878906,-40.63125228881836,0.9187500476837158
1694680665770704000,0.443703857421875,-28.950000762939453,-40.91250228881836,0.4125000238418579
1694680665790700300,0.4637001953125,-28.556251525878906,-41.212501525878906,-1.0875000953674316
1694680665810699500,0.483699462890625,-28.14375114440918,-41.23125076293945,-1.8937500715255737
1694680665830688500,0.5036884765625,-27.431251525878906,-41.775001525878906,-2.4937500953674316
1694680665850693600,0.523693603515625,-27.243751525878906,-41.8125,-3.7125000953674316
1694680665870694000,0.54369384765625,-27.243751525878906,-41.64375305175781,-4.21875
1694680665890689800,0.563689697265625,-27.056251525878906,-41.92500305175781,-4.725000381469727
1694680665910694400,0.5836943359375,-26.756250381469727,-42.11250305175781,-5.737500190734863
1694680665930694000,0.60369384765625,-26.981250762939453,-42.41250228881836,-6.431250095367432
1694680665950689300,0.623689208984375,-27.30000114440918,-42.16875076293945,-7.050000190734863
1694680665970685400,0.643685546875,-26.17500114440918,-42.35625076293945,-8.25
1694680665990686200,0.663686279296875,-26.83125114440918,-42,-11.268750190734863
1694680666010683400,0.683683349609375,-25.818750381469727,-42.09375,-12.168750762939453
1694680666030681300,0.703681396484375,-24.39375114440918,-42.16875076293945,-14.568750381469727
1694680666050675500,0.723675537109375,-22.96875,-42.01875305175781,-16.462501525878906
1694680666070678300,0.74367822265625,-23.943750381469727,-41.306251525878906,-19.59375
1694680666090677200,0.76367724609375,-24.093751907348633,-38.64375305175781,-23.55000114440918
1694680666110684000,0.783683837890625,-24.637500762939453,-36.50625228881836,-26.531251907348633
1694680666130692000,0.803692138671875,-23.962501525878906,-33.67500305175781,-30.375001907348633
1694680666150683000,0.823682861328125,-24.693750381469727,-30.975000381469727,-32.41875076293945
1694680666170694000,0.84369384765625,-22.856250762939453,-28.293750762939453,-35.45625305175781
1694680666190698500,0.863698486328125,-23.193750381469727,-24.20625114440918,-38.56875228881836
1694680666210697700,0.88369775390625,-21.5625,-21.412500381469727,-40.89375305175781
1694680666230693400,0.903693359375,-21.67500114440918,-16.256250381469727,-43.76250076293945
1694680666250685000,0.923684814453125,-18.037500381469727,-12.975000381469727,-44.23125076293945
1694680666270690300,0.943690185546875,-15.731250762939453,-10.237500190734863,-44.83125305175781
1694680666290691800,0.96369189453125,-13.668750762939453,-9.1875,-45.76875305175781
1694680666310697000,0.983697021484375,-11.175000190734863,-8.006250381469727,-45.50625228881836
1694680666330694400,1.0036943359375,-8.77500057220459,-6.675000190734863,-45.431251525878906
1694680666350688300,1.023688232421875,-7.837500095367432,-4.987500190734863,-45.67500305175781
1694680666370696200,1.0436962890625,-8.34375,-2.9437501430511475,-45.82500076293945
1694680666390696400,1.063696533203125,-4.818750381469727,-2.9437501430511475,-45.97500228881836
1694680666410693000,1.083693115234375,-2.606250047683716,-1.8562500476837158,-45.31875228881836
1694680666430685700,1.103685791015625,-0.3375000059604645,-2.5500001907348633,-45.39375305175781
1694680666450676200,1.12367626953125,0.39375001192092896,-2.53125,-45.28125
1694680666470683400,1.143683349609375,1.443750023841858,-2.793750047683716,-44.56875228881836
1694680666490685200,1.163685302734375,2.6812500953674316,-2.887500047683716,-44.962501525878906
1694680666510694100,1.183694091796875,4.143750190734863,-3.2250001430511475,-44.85000228881836
1694680666530697200,1.203697265625,4.96875,-4.087500095367432,-44.25
1694680666550695000,1.22369482421875,4.96875,-4.893750190734863,-44.47500228881836
1694680666570689000,1.24368896484375,7.462500095367432,-4.706250190734863,-43.931251525878906
1694680666590691300,1.26369140625,8.30625057220459,-4.856250286102295,-43.125
1694680666610700500,1.283700439453125,10.59375,-5.025000095367432,-43.29375076293945
1694680666630696400,1.303696533203125,11.643750190734863,-5.362500190734863,-42.78750228881836
1694680666650696400,1.323696533203125,12.05625057220459,-5.456250190734863,-43.087501525878906
1694680666670692000,1.343692138671875,12.675000190734863,-4.818750381469727,-42.84375
1694680666690696200,1.3636962890625,12.675000190734863,-3.4125001430511475,-43.42500305175781
1694680666710699800,1.38369970703125,12.99375057220459,-3.3375000953674316,-43.3125
1694680666730702000,1.4037021484375,13.200000762939453,-3.843750238418579,-43.125
1694680666750683400,1.423683349609375,11.231250762939453,-3.4125001430511475,-43.23750305175781
1694680666770688300,1.443688232421875,11.11875057220459,-2.2875001430511475,-43.91250228881836
1694680666790691800,1.46369189453125,9.975000381469727,-2.2875001430511475,-44.025001525878906
1694680666810694000,1.48369384765625,10.481250762939453,-1.9312500953674316,-44.212501525878906
1694680666830684000,1.503683837890625,9.768750190734863,-0.9000000357627869,-45.09375
1694680666850690800,1.52369091796875,10.481250762939453,-0.5250000357627869,-44.587501525878906
1694680666870692600,1.543692626953125,11.21250057220459,0.6187500357627869,-44.73750305175781
1694680666890689500,1.563689453125,11.643750190734863,1.7625000476837158,-44.90625
1694680666910694700,1.583694580078125,12.393750190734863,3.3937501907348633,-43.63125228881836
1694680666930694400,1.6036943359375,15.281250953674316,3.1125001907348633,-44.51250076293945
1694680666950684700,1.6236845703125,16.556251525878906,3.562500238418579,-44.26875305175781
1694680666970682400,1.643682373046875,18.95625114440918,3.5250000953674316,-43.42500305175781
1694680666990684400,1.663684326171875,19.162500381469727,3.168750047683716,-43.14375305175781
1694680667010693600,1.683693603515625,18.731250762939453,2.1937501430511475,-43.368751525878906
1694680667030688800,1.703688720703125,18.20625114440918,1.3875000476837158,-43.5
1694680667050680800,1.723680908203125,18.30000114440918,0.22500000894069672,-43.931251525878906
1694680667070682000,1.74368212890625,16.743751525878906,0.03750000149011612,-43.66875076293945
1694680667090683400,1.763683349609375,17.15625,-0.05625000223517418,-44.36250305175781
1694680667110687500,1.7836875,17.34375,-0.8437500596046448,-44.493751525878906
1694680667130694100,1.803694091796875,17.775001525878906,-0.48750001192092896,-44.26875305175781
1694680667150684000,1.823683837890625,16.837501525878906,-1.125,-44.400001525878906
1694680667170694400,1.8436943359375,18.1875,-1.1812500953674316,-43.78125
1694680667190698500,1.863698486328125,17.981250762939453,-0.9187500476837158,-43.875
1694680667210697500,1.883697509765625,19.03125,-0.375,-43.743751525878906
1694680667230685700,1.903685791015625,18.84375,0.16875000298023224,-42.91875076293945
1694680667250690000,1.92368994140625,19.462501525878906,-0.7125000357627869,-42.9375
1694680667270689800,1.943689697265625,19.650001525878906,-1.256250023841858,-43.556251525878906
1694680667290678300,1.96367822265625,18.712501525878906,-2.7750000953674316,-43.61250305175781
1694680667310680000,1.98368017578125,18.375,-4.03125,-44.26875305175781
1694680667330681900,2.003681884765625,18.58125114440918,-4.725000381469727,-43.57500076293945
1694680667350685000,2.023684814453125,19.125,-4.012500286102295,-43.33125305175781
1694680667370681600,2.043681640625,18.918750762939453,-4.556250095367432,-43.556251525878906
1694680667390674400,2.06367431640625,17.568750381469727,-4.181250095367432,-43.16250228881836
1694680667410676500,2.083676513671875,19.125,-4.181250095367432,-43.14375305175781
1694680667430677200,2.10367724609375,19.42500114440918,-4.537500381469727,-43.05000305175781
1694680667450671600,2.123671630859375,19.125,-4.275000095367432,-43.35000228881836
1694680667470681300,2.143681396484375,17.25,-5.4375,-42.993751525878906
1694680667490685400,2.163685546875,18.28125,-6.937500476837158,-42.82500076293945
1694680667510695400,2.1836953125,17.53125,-8.8125,-43.70625305175781
1694680667530698800,2.20369873046875,16.087501525878906,-9.881250381469727,-43.35000228881836
1694680667550696700,2.22369677734375,15.975000381469727,-10.950000762939453,-43.48125076293945
1694680667570691000,2.243691162109375,17.212501525878906,-13.762500762939453,-42.73125076293945
1694680667590693400,2.263693359375,18.46875,-14.96250057220459,-41.53125
1694680667610696200,2.2836962890625,18.375,-17.15625,-40.5
1694680667630693400,2.303693359375,18.787500381469727,-18.993751525878906,-39.73125076293945
1694680667650694100,2.323694091796875,18.806251525878906,-20.043750762939453,-38.64375305175781
1694680667670690800,2.34369091796875,19.42500114440918,-21.01875114440918,-38.47500228881836
1694680667690687700,2.363687744140625,19.537500381469727,-21.356250762939453,-38.28750228881836
1694680667710681300,2.383681396484375,19.33125114440918,-22.200000762939453,-36.28125
1694680667730685400,2.403685546875,21.731250762939453,-23.775001525878906,-35.88750076293945
1694680667750678300,2.42367822265625,21.637500762939453,-25.162500381469727,-34.81875228881836
1694680667770684700,2.4436845703125,21.75,-24.881250381469727,-34.01250076293945
1694680667790693400,2.463693359375,20.381250381469727,-24.993751525878906,-34.931251525878906
1694680667810696200,2.4836962890625,22.875,-24.900001525878906,-35.00625228881836
1694680667830686200,2.503686279296875,23.193750381469727,-23.475000381469727,-34.96875
1694680667850693400,2.523693359375,24.131250381469727,-22.931251525878906,-34.931251525878906
1694680667870694700,2.543694580078125,24.881250381469727,-21.243751525878906,-34.875
1694680667890691600,2.563691650390625,25.931251525878906,-20.08125114440918,-34.21875
1694680667910696200,2.5836962890625,26.250001907348633,-20.418750762939453,-33.712501525878906
1694680667930695700,2.60369580078125,26.137500762939453,-20.25,-33.91875076293945
1694680667950684700,2.6236845703125,26.043750762939453,-20.231250762939453,-33.618751525878906
1694680667970693000,2.643693115234375,27.187501907348633,-20.231250762939453,-33.806251525878906
1694680667990692900,2.66369287109375,26.681251525878906,-19.61250114440918,-33.28125
1694680668010688500,2.6836884765625,26.887500762939453,-19.96875,-33.09375
1694680668030687500,2.7036875,26.775001525878906,-19.537500381469727,-33.78750228881836
1694680668050680300,2.723680419921875,26.887500762939453,-19.42500114440918,-33.26250076293945
1694680668070682000,2.74368212890625,26.775001525878906,-19.61250114440918,-33.58125305175781
1694680668090679000,2.763678955078125,26.662500381469727,-19.256250381469727,-33.46875
1694680668110686700,2.783686767578125,25.012500762939453,-19.33125114440918,-33.09375
1694680668130694000,2.80369384765625,27.093751907348633,-19.256250381469727,-33.375
1694680668150683600,2.82368359375,26.981250762939453,-19.42500114440918,-33.16875076293945
1694680668170694100,2.843694091796875,26.981250762939453,-19.51875114440918,-33.16875076293945
1694680668190698200,2.8636982421875,27.30000114440918,-19.33125114440918,-33.16875076293945
1694680668210697200,2.883697265625,26.981250762939453,-19.162500381469727,-33.26250076293945
1694680668230684400,2.903684326171875,27.093751907348633,-19.14375114440918,-32.868751525878906
1694680668250689300,2.923689208984375,26.981250762939453,-19.51875114440918,-32.962501525878906
1694680668270689300,2.943689208984375,26.775001525878906,-19.59375,-32.98125076293945
1694680668290689000,2.96368896484375,27.093751907348633,-19.6875,-32.66250228881836
1694680668310699300,2.98369921875,27.825000762939453,-19.762500762939453,-33.07500076293945
1694680668330707500,3.00370751953125,27.318750381469727,-19.33125114440918,-32.868751525878906
1694680668350698500,3.023698486328125,26.887500762939453,-19.33125114440918,-33.07500076293945
1694680668370690600,3.043690673828125,27.20625114440918,-19.6875,-32.775001525878906
1694680668390691600,3.063691650390625,27.093751907348633,-19.162500381469727,-33.46875
1694680668410696000,3.083696044921875,27.093751907348633,-19.068750381469727,-32.962501525878906
1694680668430692000,3.103692138671875,25.443750381469727,-18.806251525878906,-32.66250228881836
1694680668450687700,3.123687744140625,26.887500762939453,-19.256250381469727,-33.46875
1694680668470692000,3.143692138671875,26.981250762939453,-18.806251525878906,-33.46875
1694680668490691300,3.16369140625,27.093751907348633,-18.712501525878906,-33.243751525878906
1694680668510698200,3.1836982421875,26.681251525878906,-18.637500762939453,-33.35625076293945
1694680668530699300,3.20369921875,27.30000114440918,-18.375,-33.63750076293945
1694680668550696000,3.223696044921875,27.412500381469727,-18.431251525878906,-33.03750228881836
1694680668570700300,3.2437001953125,27.093751907348633,-18.28125,-33.54375076293945
1694680668590699500,3.263699462890625,26.156251907348633,-18.20625114440918,-33.75
1694680668610707700,3.283707763671875,26.568750381469727,-18.20625114440918,-33.84375
1694680668630700500,3.303700439453125,27.093751907348633,-18.375,-33.84375
1694680668650699000,3.323698974609375,27.093751907348633,-17.83125114440918,-33.22500228881836
1694680668670693400,3.343693359375,25.51875114440918,-17.868751525878906,-34.462501525878906
1694680668690688800,3.363688720703125,26.568750381469727,-18.11250114440918,-33.75
1694680668710681300,3.383681396484375,26.475000381469727,-17.756250381469727,-33.9375
1694680668730683600,3.40368359375,25.743751525878906,-17.681251525878906,-34.14375305175781
1694680668750669600,3.423669677734375,25.443750381469727,-17.475000381469727,-33.13125228881836
1694680668770677500,3.443677490234375,26.568750381469727,-17.868751525878906,-34.14375305175781
1694680668790688000,3.46368798828125,26.250001907348633,-17.943750381469727,-34.25625228881836
1694680668810692000,3.483692138671875,26.568750381469727,-17.943750381469727,-34.25625228881836
1694680668830684200,3.50368408203125,26.36250114440918,-17.0625,-34.42500305175781
1694680668850680800,3.523680908203125,26.156251907348633,-17.943750381469727,-34.44375228881836
1694680668870685400,3.543685546875,26.775001525878906,-17.756250381469727,-33.9375
1694680668890685200,3.563685302734375,26.568750381469727,-17.943750381469727,-34.35000228881836
1694680668910692000,3.583692138671875,25.218751907348633,-17.700000762939453,-34.66875076293945
1694680668930693600,3.603693603515625,27.20625114440918,-17.587501525878906,-33.712501525878906
1694680668950682600,3.6236826171875,26.250001907348633,-17.943750381469727,-34.35000228881836
1694680668970685000,3.643684814453125,26.887500762939453,-17.868751525878906,-34.33125305175781
1694680668990687200,3.663687255859375,25.725000381469727,-17.962501525878906,-34.66875076293945
1694680669010684700,3.6836845703125,26.775001525878906,-17.325000762939453,-33.91875076293945
1694680669030682400,3.703682373046875,25.837501525878906,-17.15625,-34.44375228881836
1694680669050676500,3.723676513671875,26.250001907348633,-17.512500762939453,-34.837501525878906
1694680669070679300,3.74367919921875,26.156251907348633,-16.89375114440918,-34.63125228881836
1694680669090677800,3.763677734375,26.45625114440918,-17.587501525878906,-34.33125305175781
1694680669110683600,3.78368359375,26.662500381469727,-16.98750114440918,-34.61250305175781
1694680669130691800,3.80369189453125,26.45625114440918,-17.25,-34.63125228881836
1694680669150682600,3.8236826171875,26.137500762939453,-17.962501525878906,-34.96875
1694680669170694000,3.84369384765625,26.45625114440918,-17.606250762939453,-34.63125228881836
1694680669190698200,3.8636982421875,26.26875114440918,-17.418750762939453,-34.23750305175781
1694680669210697500,3.883697509765625,26.26875114440918,-17.775001525878906,-34.25625228881836
1694680669230685000,3.903684814453125,26.775001525878906,-17.493751525878906,-34.33125305175781
1694680669250689800,3.923689697265625,26.156251907348633,-17.418750762939453,-34.23750305175781
1694680669270701000,3.943701171875,26.981250762939453,-17.775001525878906,-34.33125305175781
1694680669290698800,3.96369873046875,26.568750381469727,-17.775001525878906,-34.53750228881836
1694680669310699500,3.983699462890625,25.200000762939453,-17.793750762939453,-34.96875
1694680669330696200,4.0036962890625,27.187501907348633,-17.587501525878906,-34.01250076293945
1694680669350681600,4.023681640625,26.250001907348633,-17.4375,-34.63125228881836
1694680669370677200,4.04367724609375,26.45625114440918,-17.606250762939453,-34.44375228881836
1694680669390682600,4.0636826171875,26.475000381469727,-17.0625,-34.3125
1694680669410695700,4.08369580078125,26.250001907348633,-17.606250762939453,-34.44375228881836
1694680669430688300,4.103688232421875,26.156251907348633,-17.325000762939453,-34.44375228881836
1694680669450685700,4.123685791015625,26.775001525878906,-17.15625,-34.61250305175781
1694680669470691000,4.143691162109375,26.568750381469727,-17.512500762939453,-34.837501525878906
1694680669490691300,4.16369140625,26.45625114440918,-17.512500762939453,-34.743751525878906
1694680669510698500,4.183698486328125,25.312501907348633,-17.34375,-34.650001525878906
1694680669530700000,4.203699951171875,26.568750381469727,-17.606250762939453,-34.63125228881836
1694680669550696700,4.22369677734375,25.631250381469727,-17.325000762939453,-34.03125
1694680669570701300,4.243701416015625,25.931251525878906,-17.4375,-34.743751525878906
1694680669590700800,4.26370068359375,25.931251525878906,-16.98750114440918,-34.42500305175781
1694680669610689300,4.283689208984375,26.775001525878906,-17.606250762939453,-34.42500305175781
1694680669630686700,4.303686767578125,26.568750381469727,-17.681251525878906,-34.14375305175781
1694680669650689000,4.32368896484375,26.568750381469727,-17.587501525878906,-34.125
1694680669670686500,4.3436865234375,25.931251525878906,-17.606250762939453,-34.35000228881836
1694680669690673400,4.36367333984375,26.662500381469727,-17.681251525878906,-34.23750305175781
1694680669710672600,4.383672607421875,26.45625114440918,-17.681251525878906,-34.53750228881836
1694680669730677800,4.403677734375,26.250001907348633,-18.131250381469727,-34.25625228881836
1694680669750678800,4.4236787109375,26.981250762939453,-17.775001525878906,-34.44375228881836
1694680669770688500,4.4436884765625,26.45625114440918,-18.131250381469727,-34.66875076293945
1694680669790697000,4.463697021484375,26.043750762939453,-18.056251525878906,-34.66875076293945
1694680669810699000,4.483698974609375,26.568750381469727,-18.037500381469727,-34.44375228881836
1694680669830689500,4.503689453125,26.662500381469727,-17.868751525878906,-34.23750305175781
1694680669850684700,4.5236845703125,26.775001525878906,-17.868751525878906,-34.44375228881836
1694680669870688000,4.54368798828125,26.156251907348633,-17.587501525878906,-34.14375305175781
1694680669890686500,4.5636865234375,26.36250114440918,-17.681251525878906,-34.14375305175781
1694680669910692900,4.58369287109375,26.775001525878906,-17.850000381469727,-34.14375305175781
1694680669930693400,4.603693359375,26.775001525878906,-18.11250114440918,-33.84375
1694680669950682600,4.6236826171875,25.33125114440918,-18.037500381469727,-33.65625
1694680669970696000,4.643696044921875,26.568750381469727,-18.037500381469727,-34.35000228881836
1694680669990695400,4.6636953125,26.568750381469727,-17.681251525878906,-34.33125305175781
1694680670010683100,4.68368310546875,26.775001525878906,-17.943750381469727,-34.23750305175781
1694680670030680300,4.703680419921875,26.981250762939453,-17.850000381469727,-34.03125
1694680670050674200,4.723674072265625,27.093751907348633,-17.868751525878906,-34.23750305175781
1694680670070684400,4.743684326171875,26.45625114440918,-18.037500381469727,-34.05000305175781
1694680670090681600,4.763681640625,26.981250762939453,-18.131250381469727,-34.556251525878906
1694680670110686000,4.78368603515625,26.45625114440918,-18.39375114440918,-34.462501525878906
1694680670130693400,4.803693359375,26.887500762939453,-17.868751525878906,-34.33125305175781
1694680670150695000,4.82369482421875,26.981250762939453,-18.037500381469727,-34.33125305175781
1694680670170703000,4.843703125,26.887500762939453,-17.681251525878906,-34.33125305175781
1694680670190705000,4.863704833984375,26.568750381469727,-17.943750381469727,-33.9375
1694680670210701800,4.883701904296875,26.568750381469727,-18.131250381469727,-34.35000228881836
1694680670230688300,4.903688232421875,26.45625114440918,-17.775001525878906,-34.85625076293945
1694680670250691600,4.923691650390625,26.662500381469727,-17.662500381469727,-34.03125
1694680670270684700,4.9436845703125,25.312501907348633,-17.606250762939453,-34.35000228881836
1694680670290684000,4.963683837890625,26.568750381469727,-17.868751525878906,-34.556251525878906
1694680670310688300,4.983688232421875,26.043750762939453,-17.418750762939453,-34.33125305175781
1694680670330688000,5.00368798828125,26.26875114440918,-17.493751525878906,-34.23750305175781
1694680670350676000,5.023676025390625,26.662500381469727,-17.868751525878906,-34.53750228881836
1694680670370673700,5.043673583984375,27.093751907348633,-17.775001525878906,-34.23750305175781
1694680670390679800,5.0636796875,26.775001525878906,-17.681251525878906,-34.23750305175781
1694680670410681000,5.08368115234375,26.568750381469727,-17.868751525878906,-34.556251525878906
1694680670430677800,5.103677734375,26.887500762939453,-17.493751525878906,-33.82500076293945
1694680670450678500,5.123678466796875,27.187501907348633,-17.662500381469727,-34.03125
1694680670470686500,5.1436865234375,27.39375114440918,-17.775001525878906,-34.33125305175781
1694680670490688800,5.163688720703125,27.39375114440918,-17.493751525878906,-34.125
1694680670510697500,5.183697509765625,26.250001907348633,-16.98750114440918,-34.72500228881836
1694680670530700000,5.203699951171875,26.887500762939453,-17.0625,-34.51875305175781
1694680670550697200,5.223697265625,26.662500381469727,-16.98750114440918,-34.61250305175781
1694680670570702000,5.2437021484375,27.20625114440918,-16.42500114440918,-33.993751525878906
1694680670590701600,5.26370166015625,25.443750381469727,-15.80625057220459,-33.806251525878906
1694680670610689500,5.283689453125,27.187501907348633,-16.275001525878906,-34.6875
1694680670630687700,5.303687744140625,27.39375114440918,-16.350000381469727,-34.38750076293945
1694680670650689500,5.323689453125,26.981250762939453,-16.350000381469727,-34.40625
1694680670670679600,5.343679443359375,26.793750762939453,-16.087501525878906,-34.087501525878906
1694680670690679300,5.36367919921875,27.187501907348633,-16.275001525878906,-34.89375305175781
1694680670710675000,5.383675048828125,27.20625114440918,-16.256250381469727,-34.29375076293945
1694680670730679000,5.403678955078125,26.662500381469727,-16.537500381469727,-34.81875228881836
1694680670750668000,5.42366796875,24.993751525878906,-16.631250381469727,-34.837501525878906
1694680670770678300,5.44367822265625,26.36250114440918,-16.725000381469727,-34.72500228881836
1694680670790689300,5.463689208984375,26.568750381469727,-16.725000381469727,-35.118751525878906
1694680670810694000,5.48369384765625,26.662500381469727,-16.818750381469727,-34.91250228881836
1694680670830685200,5.503685302734375,25.931251525878906,-17.26875114440918,-35.45625305175781
1694680670850693000,5.523693115234375,26.043750762939453,-17.08125114440918,-34.931251525878906
1694680670870695200,5.543695068359375,25.51875114440918,-16.837501525878906,-35.73750305175781
1694680670890692400,5.5636923828125,25.931251525878906,-17.08125114440918,-35.23125076293945
1694680670910697200,5.583697265625,23.55000114440918,-16.200000762939453,-35.04375076293945
1694680670930697000,5.603697021484375,25.837501525878906,-16.650001525878906,-35.4375
1694680670950694700,5.623694580078125,25.931251525878906,-16.556251525878906,-35.53125
1694680670970697700,5.64369775390625,25.725000381469727,-16.818750381469727,-35.34375
1694680670990696200,5.6636962890625,25.61250114440918,-17.006250381469727,-35.23125076293945
1694680671010684000,5.683683837890625,26.137500762939453,-16.912500381469727,-35.32500076293945
1694680671030681900,5.703681884765625,26.662500381469727,-16.368751525878906,-35.00625228881836
1694680671050675200,5.72367529296875,25.837501525878906,-16.818750381469727,-35.13750076293945
1694680671070695200,5.743695068359375,25.106250762939453,-16.725000381469727,-34.42500305175781
1694680671090689300,5.763689208984375,26.45625114440918,-16.537500381469727,-34.91250228881836
1694680671110699500,5.783699462890625,26.45625114440918,-16.631250381469727,-34.81875228881836
1694680671130702800,5.803702880859375,26.250001907348633,-16.725000381469727,-35.212501525878906
1694680671150689800,5.823689697265625,25.837501525878906,-16.650001525878906,-35.4375
1694680671170698000,5.843697998046875,26.043750762939453,-16.631250381469727,-35.118751525878906
1694680671190700500,5.863700439453125,25.725000381469727,-16.387500762939453,-35.212501525878906
1694680671210698000,5.883697998046875,25.837501525878906,-16.106250762939453,-35.118751525878906
1694680671230686700,5.903686767578125,24.806251525878906,-16.012500762939453,-34.72500228881836
1694680671250690300,5.923690185546875,26.250001907348633,-16.556251525878906,-35.212501525878906
1694680671270683000,5.943682861328125,25.725000381469727,-16.743751525878906,-35.4375
1694680671290693600,5.963693603515625,26.043750762939453,-16.293750762939453,-35.32500076293945
1694680671310696000,5.983696044921875,25.631250381469727,-16.631250381469727,-35.025001525878906
1694680671330687700,6.003687744140625,26.043750762939453,-16.556251525878906,-35.212501525878906
1694680671350675200,6.02367529296875,26.043750762939453,-16.462501525878906,-35.32500076293945
1694680671370673700,6.043673583984375,25.725000381469727,-16.743751525878906,-35.4375
1694680671390679800,6.0636796875,24.787500381469727,-16.21875,-35.32500076293945
1694680671410681300,6.083681396484375,25.931251525878906,-16.650001525878906,-35.32500076293945
1694680671430679800,6.1036796875,25.200000762939453,-16.668750762939453,-35.83125305175781
1694680671450680000,6.12368017578125,25.406251907348633,-16.743751525878906,-35.73750305175781
1694680671470687500,6.1436875,23.73750114440918,-17.025001525878906,-36.28125
1694680671490689500,6.163689453125,25.51875114440918,-16.575000762939453,-36.03750228881836
1694680671510698000,6.183697998046875,25.406251907348633,-16.3125,-35.92500305175781
1694680671530700300,6.2037001953125,25.200000762939453,-16.650001525878906,-35.4375
1694680671550697200,6.223697265625,24.787500381469727,-16.293750762939453,-35.53125
1694680671570702000,6.2437021484375,24.881250381469727,-16.575000762939453,-36.056251525878906
1694680671590701300,6.263701416015625,25.406251907348633,-16.14375114440918,-36.22500228881836
1694680671610691600,6.283691650390625,24.375001907348633,-15.956250190734863,-35.83125305175781
1694680671630688500,6.3036884765625,24.787500381469727,-16.40625,-36.03750228881836
1694680671650690300,6.323690185546875,25.293750762939453,-16.05000114440918,-36.13125228881836
1694680671670680000,6.34368017578125,24.993751525878906,-16.03125,-35.83125305175781
1694680671690668000,6.36366796875,24.993751525878906,-16.23750114440918,-36.13125228881836
1694680671710666000,6.383666015625,24.67500114440918,-15.956250190734863,-35.625
1694680671730684200,6.40368408203125,25.406251907348633,-16.3125,-36.03750228881836
1694680671750672100,6.423672119140625,25.406251907348633,-16.387500762939453,-35.73750305175781
1694680671770684400,6.443684326171875,25.106250762939453,-16.125,-35.92500305175781
1694680671790694000,6.46369384765625,24.375001907348633,-16.03125,-35.64375305175781
1694680671810697200,6.483697265625,25.200000762939453,-16.03125,-35.83125305175781
1694680671830702000,6.5037021484375,25.406251907348633,-16.21875,-35.83125305175781
1694680671850694400,6.5236943359375,25.61250114440918,-16.650001525878906,-35.53125
1694680671870695400,6.5436953125,25.312501907348633,-16.125,-35.51250076293945
1694680671890703400,6.563703369140625,25.61250114440918,-16.21875,-35.71875
1694680671910705200,6.583705078125,26.662500381469727,-16.200000762939453,-35.51250076293945
1694680671930694400,6.6036943359375,25.818750381469727,-16.481250762939453,-35.73750305175781
1694680671950685700,6.623685791015625,25.406251907348633,-16.387500762939453,-35.73750305175781
1694680671970690300,6.643690185546875,25.51875114440918,-16.462501525878906,-35.32500076293945
1694680671990698200,6.6636982421875,26.137500762939453,-16.387500762939453,-35.625
1694680672010685200,6.683685302734375,26.043750762939453,-16.556251525878906,-35.32500076293945
1694680672030681900,6.703681884765625,25.725000381469727,-16.481250762939453,-35.625
1694680672050675200,6.72367529296875,26.043750762939453,-16.556251525878906,-35.212501525878906
1694680672070677800,6.743677734375,26.343751907348633,-16.912500381469727,-35.53125
1694680672090676700,6.7636767578125,26.137500762939453,-16.631250381469727,-35.118751525878906
1694680672110690000,6.78368994140625,25.106250762939453,-16.837501525878906,-35.34375
1694680672130696700,6.80369677734375,25.61250114440918,-16.575000762939453,-35.625
1694680672150697200,6.823697265625,25.931251525878906,-16.387500762939453,-35.625
1694680672170704600,6.84370458984375,25.406251907348633,-16.481250762939453,-35.53125
1694680672190706200,6.8637060546875,25.51875114440918,-16.743751525878906,-35.34375
1694680672210702600,6.88370263671875,26.156251907348633,-16.89375114440918,-34.931251525878906
1694680672230689000,6.90368896484375,25.931251525878906,-16.912500381469727,-35.73750305175781
1694680672250691800,6.92369189453125,25.406251907348633,-16.743751525878906,-35.4375
1694680672270683000,6.943682861328125,25.106250762939453,-16.912500381469727,-35.64375305175781
1694680672290687000,6.96368701171875,24.993751525878906,-16.725000381469727,-35.04375076293945
1694680672310690600,6.983690673828125,25.61250114440918,-16.650001525878906,-35.32500076293945
1694680672330700800,7.00370068359375,24.993751525878906,-16.912500381469727,-35.15625
1694680672350685400,7.023685546875,25.61250114440918,-16.912500381469727,-35.04375076293945
1694680672370684000,7.043683837890625,25.51875114440918,-17.08125114440918,-35.34375
1694680672390687700,7.063687744140625,25.51875114440918,-17.17500114440918,-35.25
1694680672410686000,7.08368603515625,25.200000762939453,-17.193750381469727,-35.66250228881836
1694680672430682600,7.1036826171875,23.850000381469727,-17.793750762939453,-35.19375228881836
1694680672450681600,7.123681640625,25.406251907348633,-17.625,-35.15625
1694680672470688000,7.14368798828125,25.51875114440918,-17.625,-35.26875305175781
1694680672490689300,7.163689208984375,25.725000381469727,-18.150001525878906,-35.17500305175781
1694680672510697200,7.183697265625,25.61250114440918,-17.887500762939453,-35.17500305175781
1694680672530699300,7.20369921875,25.725000381469727,-18.150001525878906,-35.0625
1694680672550696400,7.223696533203125,25.61250114440918,-17.962501525878906,-34.66875076293945
1694680672570701300,7.243701416015625,25.406251907348633,-18.056251525878906,-35.17500305175781
1694680672590701800,7.263701904296875,24.993751525878906,-18.337501525878906,-35.38125228881836
1694680672610700000,7.283699951171875,25.51875114440918,-18.056251525878906,-34.875
1694680672630695000,7.30369482421875,26.043750762939453,-17.887500762939453,-34.96875
1694680672650694700,7.323694580078125,25.837501525878906,-18.225000381469727,-34.66875076293945
1694680672670695000,7.34369482421875,24.900001525878906,-18.056251525878906,-34.57500076293945
1694680672690690300,7.363690185546875,25.931251525878906,-18.131250381469727,-34.462501525878906
1694680672710671600,7.383671630859375,26.043750762939453,-18.056251525878906,-34.96875
1694680672730664200,7.403664306640625,26.043750762939453,-18.056251525878906,-34.556251525878906
1694680672750660000,7.42366015625,24.918750762939453,-18.037500381469727,-34.06875228881836
1694680672770667500,7.44366748046875,26.025001525878906,-18.412500381469727,-34.875
1694680672790681000,7.46368115234375,26.043750762939453,-17.775001525878906,-34.556251525878906
1694680672810676700,7.4836767578125,25.725000381469727,-18.48750114440918,-34.6875
1694680672830676700,7.5036767578125,25.725000381469727,-18.225000381469727,-34.368751525878906
1694680672850676200,7.52367626953125,25.837501525878906,-18.318750381469727,-34.875
1694680672870683100,7.54368310546875,26.45625114440918,-18.5625,-34.368751525878906
1694680672890695700,7.56369580078125,26.231250762939453,-18.39375114440918,-34.76250076293945
1694680672910701000,7.583701171875,24.993751525878906,-18.58125114440918,-34.78125
1694680672930693400,7.603693359375,25.61250114440918,-17.793750762939453,-34.76250076293945
1694680672950697200,7.623697265625,25.837501525878906,-18.056251525878906,-34.66875076293945
1694680672970689000,7.64368896484375,26.043750762939453,-18.056251525878906,-34.96875
1694680672990689800,7.663689697265625,25.312501907348633,-17.512500762939453,-34.66875076293945
1694680673010678500,7.683678466796875,26.250001907348633,-17.700000762939453,-34.85625076293945
1694680673030677800,7.703677734375,26.137500762939453,-17.512500762939453,-35.04375076293945
1694680673050677500,7.723677490234375,26.137500762939453,-17.868751525878906,-34.743751525878906
1694680673070668800,7.743668701171875,25.012500762939453,-17.606250762939453,-34.16250228881836
1694680673090669800,7.763669921875,26.250001907348633,-17.700000762939453,-34.85625076293945
1694680673110674200,7.783674072265625,26.156251907348633,-17.512500762939453,-34.53750228881836
1694680673130685200,7.803685302734375,26.137500762939453,-17.700000762939453,-35.04375076293945
1694680673150689500,7.823689453125,26.156251907348633,-17.606250762939453,-34.33125305175781
1694680673170699800,7.84369970703125,26.137500762939453,-17.962501525878906,-34.96875
1694680673190703400,7.863703369140625,26.250001907348633,-17.512500762939453,-34.53750228881836
1694680673210690300,7.883690185546875,26.250001907348633,-17.512500762939453,-34.743751525878906
1694680673230679600,7.903679443359375,25.837501525878906,-17.4375,-34.743751525878906
1694680673250686000,7.92368603515625,25.931251525878906,-17.681251525878906,-34.44375228881836
1694680673270691300,7.94369140625,26.231250762939453,-17.887500762939453,-35.15625
1694680673290687500,7.9636875,25.51875114440918,-17.606250762939453,-34.85625076293945
1694680673310691600,7.983691650390625,25.218751907348633,-17.4375,-34.85625076293945
1694680673330695700,8.00369580078125,25.931251525878906,-17.700000762939453,-34.743751525878906
1694680673350681900,8.023681884765624,25.61250114440918,-17.512500762939453,-34.95000076293945
1694680673370678000,8.043677978515625,25.931251525878906,-17.512500762939453,-34.95000076293945
1694680673390672600,8.063672607421875,25.42500114440918,-17.325000762939453,-34.23750305175781
1694680673410664200,8.083664306640625,25.725000381469727,-17.53125,-35.04375076293945
1694680673430664700,8.103664794921874,25.725000381469727,-17.53125,-35.04375076293945
1694680673450668800,8.123668701171875,26.043750762939453,-17.962501525878906,-34.85625076293945
1694680673470679800,8.1436796875,25.725000381469727,-17.962501525878906,-34.76250076293945
1694680673490684400,8.163684326171875,25.725000381469727,-17.34375,-34.95000076293945
1694680673510695000,8.18369482421875,26.156251907348633,-17.512500762939453,-34.53750228881836
1694680673530698800,8.20369873046875,25.837501525878906,-17.512500762939453,-34.95000076293945
1694680673550697000,8.223697021484375,25.218751907348633,-17.606250762939453,-34.556251525878906
1694680673570702300,8.243702392578125,26.137500762939453,-17.17500114440918,-35.04375076293945
1694680673590696000,8.263696044921875,26.043750762939453,-17.887500762939453,-34.85625076293945
1694680673610695400,8.2836953125,26.36250114440918,-17.418750762939453,-34.53750228881836
1694680673630692400,8.3036923828125,25.42500114440918,-17.887500762939453,-34.76250076293945
1694680673650693400,8.323693359375,26.025001525878906,-17.71875,-35.15625
1694680673670693600,8.343693603515625,25.406251907348633,-17.625,-35.0625
1694680673690689500,8.363689453125,25.931251525878906,-17.700000762939453,-35.0625
1694680673710673200,8.383673095703125,25.42500114440918,-16.631250381469727,-34.931251525878906
1694680673730669600,8.403669677734374,25.931251525878906,-17.625,-35.15625
1694680673750660600,8.42366064453125,26.137500762939453,-17.606250762939453,-34.743751525878906
1694680673770668000,8.44366796875,26.137500762939453,-17.962501525878906,-34.85625076293945
1694680673790681600,8.463681640625,25.51875114440918,-17.606250762939453,-34.96875
1694680673810677000,8.483677001953126,25.51875114440918,-17.887500762939453,-35.17500305175781
1694680673830673700,8.503673583984375,25.61250114440918,-17.700000762939453,-35.0625
1694680673850673700,8.523673583984374,25.312501907348633,-17.15625,-34.63125228881836
1694680673870681000,8.54368115234375,24.993751525878906,-17.512500762939453,-34.66875076293945
1694680673890694100,8.563694091796876,25.837501525878906,-17.34375,-34.837501525878906
1694680673910700000,8.583699951171875,25.406251907348633,-17.53125,-34.96875
1694680673930695700,8.60369580078125,25.61250114440918,-17.34375,-34.95000076293945
1694680673950692000,8.623692138671874,24.056251525878906,-17.71875,-35.17500305175781
1694680673970696700,8.64369677734375,26.043750762939453,-17.4375,-34.837501525878906
1694680673990688300,8.663688232421874,25.51875114440918,-17.26875114440918,-34.95000076293945
1694680674010677200,8.68367724609375,25.837501525878906,-17.25,-34.837501525878906
1694680674030676200,8.70367626953125,25.42500114440918,-16.631250381469727,-34.63125228881836
1694680674050686000,8.72368603515625,25.931251525878906,-17.4375,-35.34375
1694680674070675200,8.74367529296875,25.61250114440918,-17.512500762939453,-34.85625076293945
1694680674090681900,8.763681884765624,25.725000381469727,-17.17500114440918,-35.34375
1694680674110683000,8.783682861328124,25.312501907348633,-17.34375,-34.85625076293945
1694680674130691000,8.803691162109375,25.312501907348633,-17.0625,-34.44375228881836
1694680674150693400,8.823693359375,24.693750381469727,-17.4375,-34.96875
1694680674170702000,8.8437021484375,25.218751907348633,-17.15625,-34.650001525878906
1694680674190704400,8.863704345703125,24.58125114440918,-17.15625,-34.44375228881836
1694680674210690600,8.883690673828125,25.631250381469727,-17.15625,-34.743751525878906
1694680674230679800,8.9036796875,25.106250762939453,-17.34375,-35.15625
1694680674250686000,8.92368603515625,25.61250114440918,-17.17500114440918,-34.931251525878906
1694680674270689300,8.943689208984376,24.58125114440918,-17.45625114440918,-35.17500305175781
1694680674290696700,8.96369677734375,25.51875114440918,-17.4375,-35.04375076293945
1694680674310698500,8.983698486328125,25.106250762939453,-17.17500114440918,-35.25
1694680674330700300,9.0037001953125,25.51875114440918,-17.26875114440918,-34.95000076293945
1694680674350684700,9.0236845703125,24.993751525878906,-17.34375,-34.85625076293945
1694680674370680800,9.043680908203125,25.725000381469727,-17.793750762939453,-34.85625076293945
1694680674390674000,9.063673828125,25.725000381469727,-17.17500114440918,-34.837501525878906
1694680674410664000,9.083663818359375,25.725000381469727,-17.26875114440918,-34.931251525878906
1694680674430664000,9.103663818359376,26.043750762939453,-17.08125114440918,-35.04375076293945
1694680674450668000,9.12366796875,26.043750762939453,-17.26875114440918,-35.04375076293945
1694680674470679000,9.143678955078125,26.137500762939453,-17.512500762939453,-34.95000076293945
1694680674490683600,9.16368359375,25.725000381469727,-16.818750381469727,-34.837501525878906
1694680674510683000,9.183682861328125,25.106250762939453,-17.17500114440918,-34.95000076293945
1694680674530689500,9.203689453125,25.106250762939453,-17.36250114440918,-35.36250305175781
1694680674550690600,9.223690673828125,25.837501525878906,-17.0625,-34.63125228881836
1694680674570698000,9.243697998046875,26.043750762939453,-17.08125114440918,-34.931251525878906
1694680674590691800,9.26369189453125,24.693750381469727,-17.08125114440918,-34.743751525878906
1694680674610697500,9.283697509765625,26.45625114440918,-16.98750114440918,-34.61250305175781
1694680674630694400,9.3036943359375,25.51875114440918,-16.89375114440918,-34.931251525878906
1694680674650676200,9.32367626953125,25.51875114440918,-17.606250762939453,-34.85625076293945
1694680674670669300,9.34366943359375,25.837501525878906,-17.34375,-35.25
1694680674690671900,9.363671875,26.025001525878906,-17.53125,-35.34375
1694680674710670800,9.3836708984375,26.137500762939453,-17.26875114440918,-34.931251525878906
1694680674730665700,9.403665771484375,25.61250114440918,-17.4375,-35.15625
1694680674750665200,9.423665283203125,25.200000762939453,-17.45625114440918,-35.26875305175781
1694680674770684000,9.443683837890624,25.725000381469727,-17.681251525878906,-34.650001525878906
1694680674790694400,9.4636943359375,26.250001907348633,-17.4375,-34.931251525878906
1694680674810686700,9.483686767578124,25.61250114440918,-17.36250114440918,-35.34375
1694680674830680000,9.50368017578125,25.51875114440918,-17.17500114440918,-35.04375076293945
1694680674850678300,9.52367822265625,26.043750762939453,-17.700000762939453,-34.85625076293945
1694680674870684400,9.543684326171874,26.025001525878906,-17.45625114440918,-35.55000305175781
1694680674890696200,9.5636962890625,26.250001907348633,-17.34375,-35.04375076293945
1694680674910701000,9.583701171875,24.918750762939453,-17.231250762939453,-34.14375305175781
1694680674930694100,9.603694091796875,25.312501907348633,-17.25,-34.743751525878906
1694680674950690800,9.62369091796875,25.931251525878906,-17.512500762939453,-34.556251525878906
1694680674970695400,9.6436953125,26.043750762939453,-17.512500762939453,-34.743751525878906
1694680674990687000,9.66368701171875,25.51875114440918,-17.34375,-34.743751525878906
1694680675010676200,9.68367626953125,25.837501525878906,-17.606250762939453,-34.743751525878906
1694680675030676000,9.703676025390624,25.931251525878906,-17.45625114440918,-35.45625305175781
1694680675050675500,9.723675537109376,25.931251525878906,-17.962501525878906,-35.26875305175781
1694680675070668800,9.743668701171876,25.42500114440918,-17.606250762939453,-34.76250076293945
1694680675090677200,9.76367724609375,25.931251525878906,-17.34375,-35.04375076293945
1694680675110680000,9.78368017578125,26.043750762939453,-17.793750762939453,-34.85625076293945
1694680675130689500,9.803689453125,26.025001525878906,-17.625,-35.25
1694680675150692600,9.823692626953125,25.725000381469727,-17.962501525878906,-35.17500305175781
1694680675170701600,9.84370166015625,25.312501907348633,-17.34375,-34.85625076293945
1694680675190704400,9.863704345703125,26.025001525878906,-17.793750762939453,-35.26875305175781
1694680675210690800,9.88369091796875,25.837501525878906,-17.08125114440918,-35.13750076293945
1694680675230680000,9.90368017578125,25.218751907348633,-17.681251525878906,-34.368751525878906
1694680675250678300,9.92367822265625,25.725000381469727,-17.512500762939453,-34.85625076293945
1694680675270677000,9.943677001953125,25.837501525878906,-17.4375,-34.95000076293945
1694680675290676500,9.963676513671874,26.137500762939453,-17.793750762939453,-35.15625
1694680675310685000,9.983684814453126,25.725000381469727,-17.17500114440918,-35.13750076293945
1694680675330678800,10.0036787109375,25.51875114440918,-17.625,-35.26875305175781
1694680675350671000,10.023671142578126,25.931251525878906,-17.34375,-34.931251525878906
1694680675370671000,10.043671142578125,25.931251525878906,-17.4375,-35.34375
1694680675390669600,10.063669677734374,24.993751525878906,-17.4375,-34.66875076293945
1694680675410662400,10.083662353515624,25.725000381469727,-17.4375,-34.95000076293945
1694680675430664400,10.10366455078125,25.837501525878906,-17.25,-34.837501525878906
1694680675450669600,10.123669677734375,25.312501907348633,-17.4375,-35.0625
1694680675470681000,10.14368115234375,24.993751525878906,-17.17500114440918,-35.45625305175781
1694680675490686000,10.16368603515625,25.61250114440918,-17.962501525878906,-35.17500305175781
1694680675510685200,10.183685302734375,25.61250114440918,-17.26875114440918,-35.15625
1694680675530691300,10.20369140625,25.51875114440918,-17.71875,-35.0625
1694680675550692000,10.223692138671876,24.993751525878906,-17.25,-34.650001525878906
1694680675570699300,10.24369921875,26.156251907348633,-17.325000762939453,-34.53750228881836
1694680675590694100,10.263694091796875,26.250001907348633,-17.26875114440918,-35.04375076293945
1694680675610692400,10.2836923828125,26.250001907348633,-17.4375,-35.04375076293945
1694680675630679300,10.30367919921875,25.200000762939453,-17.625,-35.0625
1694680675650665700,10.323665771484375,25.61250114440918,-17.700000762939453,-35.0625
1694680675670661600,10.34366162109375,25.725000381469727,-17.4375,-35.15625
1694680675690666500,10.36366650390625,25.312501907348633,-17.625,-35.15625
1694680675710658800,10.383658935546874,24.787500381469727,-17.26875114440918,-34.85625076293945
1694680675730657800,10.40365771484375,26.231250762939453,-17.625,-35.34375
1694680675750660000,10.42366015625,25.725000381469727,-17.606250762939453,-34.95000076293945
1694680675770680800,10.443680908203126,26.137500762939453,-17.4375,-34.837501525878906
1694680675790693000,10.463693115234374,24.787500381469727,-17.981250762939453,-35.79375076293945
1694680675810697700,10.48369775390625,26.043750762939453,-17.26875114440918,-34.931251525878906
1694680675830689300,10.503689208984374,25.61250114440918,-17.17500114440918,-35.15625
1694680675850685400,10.523685546875,25.725000381469727,-17.4375,-34.85625076293945
1694680675870689500,10.543689453125,25.837501525878906,-17.34375,-34.95000076293945
1694680675890699800,10.56369970703125,25.837501525878906,-17.4375,-35.04375076293945
1694680675910695700,10.58369580078125,25.931251525878906,-17.4375,-34.743751525878906
1694680675930698500,10.603698486328126,25.725000381469727,-17.26875114440918,-34.931251525878906
1694680675950694000,10.62369384765625,25.61250114440918,-17.700000762939453,-34.96875
1694680675970697200,10.643697265625,25.837501525878906,-17.53125,-35.04375076293945
1694680675990688300,10.663688232421874,26.45625114440918,-17.325000762939453,-34.33125305175781
1694680676010676700,10.6836767578125,26.55000114440918,-17.4375,-35.34375
1694680676030677800,10.703677734375,26.250001907348633,-17.700000762939453,-34.85625076293945
1694680676050672400,10.72367236328125,26.137500762939453,-17.681251525878906,-34.743751525878906
1694680676070678300,10.74367822265625,26.137500762939453,-17.4375,-34.837501525878906
1694680676090684400,10.763684326171875,26.137500762939453,-17.793750762939453,-35.04375076293945
1694680676110685200,10.783685302734375,24.67500114440918,-17.73750114440918,-35.775001525878906
1694680676130692900,10.80369287109375,24.262500762939453,-16.912500381469727,-35.36250305175781
1694680676150694700,10.823694580078126,24.281251907348633,-17.0625,-34.462501525878906
1694680676170702800,10.843702880859375,25.631250381469727,-17.26875114440918,-34.837501525878906
1694680676190704600,10.86370458984375,25.51875114440918,-16.631250381469727,-34.837501525878906
1694680676210690600,10.883690673828125,25.931251525878906,-17.793750762939453,-34.85625076293945
1694680676230679600,10.903679443359374,25.312501907348633,-17.26875114440918,-34.95000076293945
1694680676250679000,10.923678955078126,25.837501525878906,-17.4375,-34.650001525878906
1694680676270681600,10.943681640625,24.787500381469727,-17.287500381469727,-35.56875228881836
1694680676290691000,10.963691162109376,25.312501907348633,-17.006250381469727,-35.13750076293945
1694680676310694700,10.983694580078126,24.67500114440918,-17.71875,-35.17500305175781
1694680676330697200,11.003697265625,25.931251525878906,-17.512500762939453,-34.95000076293945
1694680676350683000,11.023682861328124,25.012500762939453,-17.0625,-34.23750305175781
1694680676370690600,11.043690673828126,25.218751907348633,-17.34375,-34.95000076293945
1694680676390681000,11.06368115234375,25.312501907348633,-17.006250381469727,-35.25
1694680676410677000,11.083677001953125,25.931251525878906,-17.34375,-34.743751525878906
1694680676430674200,11.103674072265624,24.168750762939453,-17.625,-34.875
1694680676450675500,11.123675537109374,25.931251525878906,-17.17500114440918,-34.931251525878906
1694680676470684000,11.143683837890626,25.012500762939453,-17.0625,-34.44375228881836
1694680676490686700,11.163686767578126,25.837501525878906,-17.4375,-34.95000076293945
1694680676510684700,11.1836845703125,26.45625114440918,-17.962501525878906,-35.0625
1694680676530690300,11.203690185546876,25.312501907348633,-17.793750762939453,-34.96875
1694680676550690300,11.223690185546875,25.725000381469727,-17.793750762939453,-35.15625
1694680676570698000,11.243697998046875,25.725000381469727,-17.512500762939453,-34.95000076293945
1694680676590701600,11.26370166015625,25.293750762939453,-17.8125,-35.66250228881836
1694680676610697700,11.28369775390625,25.837501525878906,-17.4375,-34.95000076293945
1694680676630684200,11.30368408203125,26.025001525878906,-17.71875,-35.15625
1694680676650668500,11.32366845703125,25.51875114440918,-17.17500114440918,-35.25
1694680676670664400,11.34366455078125,24.806251525878906,-16.98750114440918,-34.743751525878906
1694680676690668000,11.36366796875,26.043750762939453,-17.34375,-34.743751525878906
1694680676710656500,11.383656494140626,24.787500381469727,-17.625,-35.56875228881836
1694680676730655000,11.403655029296875,25.218751907348633,-17.606250762939453,-34.85625076293945
1694680676750657800,11.42365771484375,24.375001907348633,-17.34375,-34.76250076293945
1694680676770679000,11.443678955078125,24.993751525878906,-17.512500762939453,-34.66875076293945
1694680676790691600,11.463691650390626,25.931251525878906,-17.606250762939453,-34.743751525878906
1694680676810697000,11.483697021484375,26.043750762939453,-17.34375,-35.04375076293945
1694680676830691800,11.50369189453125,26.043750762939453,-17.606250762939453,-34.743751525878906
1694680676850687500,11.5236875,25.837501525878906,-17.793750762939453,-34.85625076293945
1694680676870691000,11.543691162109376,25.725000381469727,-17.36250114440918,-35.34375
1694680676890701000,11.563701171875,25.406251907348633,-17.887500762939453,-34.96875
1694680676910701300,11.583701416015625,24.787500381469727,-17.71875,-35.36250305175781
1694680676930707200,11.603707275390626,25.725000381469727,-17.512500762939453,-34.85625076293945
1694680676950700500,11.623700439453126,24.58125114440918,-16.98750114440918,-34.556251525878906
1694680676970702000,11.6437021484375,25.312501907348633,-17.17500114440918,-34.95000076293945
1694680676990691300,11.66369140625,25.537500381469727,-17.0625,-34.63125228881836
1694680677010678500,11.683678466796875,25.61250114440918,-17.606250762939453,-34.96875
1694680677030676000,11.703676025390624,24.58125114440918,-17.793750762939453,-35.17500305175781
1694680677050670600,11.723670654296875,25.406251907348633,-17.4375,-35.15625
1694680677070676700,11.7436767578125,24.806251525878906,-16.89375114440918,-34.23750305175781
1694680677090683000,11.763682861328125,25.106250762939453,-17.34375,-34.96875
1694680677110684000,11.783683837890624,25.931251525878906,-17.4375,-35.25
1694680677130691800,11.80369189453125,25.200000762939453,-17.625,-35.0625
1694680677150693600,11.823693603515625,24.993751525878906,-17.606250762939453,-34.66875076293945
1694680677170702300,11.843702392578125,25.218751907348633,-17.17500114440918,-35.04375076293945
1694680677190704600,11.86370458984375,25.293750762939453,-17.45625114440918,-35.66250228881836
1694680677210701800,11.883701904296874,25.106250762939453,-17.17500114440918,-34.743751525878906
1694680677230688300,11.903688232421874,24.900001525878906,-17.606250762939453,-34.76250076293945
1694680677250676500,11.923676513671875,24.693750381469727,-17.34375,-34.96875
1694680677270679300,11.94367919921875,23.64375114440918,-16.462501525878906,-35.04375076293945
1694680677290689000,11.96368896484375,25.200000762939453,-17.36250114440918,-35.26875305175781
1694680677310673700,11.983673583984375,25.200000762939453,-17.36250114440918,-35.26875305175781
1694680677330669800,12.003669921875,25.106250762939453,-17.26875114440918,-35.04375076293945
1694680677350663000,12.023662841796876,25.406251907348633,-17.34375,-35.15625
1694680677370664700,12.043664794921876,25.931251525878906,-17.4375,-35.04375076293945
1694680677390665000,12.0636650390625,25.725000381469727,-17.26875114440918,-34.931251525878906
1694680677410666800,12.083666748046875,25.61250114440918,-17.34375,-34.95000076293945
1694680677430668800,12.103668701171875,25.631250381469727,-17.25,-34.743751525878906
1694680677450673200,12.123673095703126,25.931251525878906,-17.17500114440918,-35.13750076293945
1694680677470684000,12.143683837890626,25.631250381469727,-17.17500114440918,-34.837501525878906
1694680677490688300,12.163688232421874,25.61250114440918,-17.26875114440918,-35.15625
1694680677510686700,12.183686767578125,25.200000762939453,-17.26875114440918,-35.15625
1694680677530692900,12.20369287109375,25.51875114440918,-17.700000762939453,-34.85625076293945
1694680677550692900,12.22369287109375,25.406251907348633,-17.26875114440918,-35.15625
1694680677570692400,12.2436923828125,24.881250381469727,-17.45625114440918,-35.36250305175781
1694680677590702300,12.263702392578125,25.106250762939453,-17.53125,-35.15625
1694680677610698800,12.28369873046875,25.406251907348633,-17.53125,-35.0625
1694680677630695000,12.30369482421875,25.51875114440918,-17.26875114440918,-35.04375076293945
1694680677650677200,12.32367724609375,25.61250114440918,-17.08125114440918,-35.34375
1694680677670670300,12.34367041015625,25.61250114440918,-17.53125,-35.15625
1694680677690677200,12.36367724609375,25.312501907348633,-17.34375,-34.743751525878906
1694680677710662700,12.38366259765625,25.725000381469727,-17.45625114440918,-35.34375
1694680677730666500,12.40366650390625,24.993751525878906,-17.08125114440918,-35.15625
1694680677750666000,12.423666015625,25.51875114440918,-17.36250114440918,-35.25
1694680677770684400,12.443684326171875,25.312501907348633,-17.36250114440918,-35.36250305175781
1694680677790695000,12.46369482421875,25.406251907348633,-17.36250114440918,-35.36250305175781
1694680677810698500,12.483698486328125,25.406251907348633,-17.4375,-35.15625
1694680677830689000,12.50368896484375,25.725000381469727,-17.34375,-34.95000076293945
1694680677850696200,12.5236962890625,25.312501907348633,-16.98750114440918,-34.837501525878906
1694680677870697500,12.543697509765625,25.312501907348633,-17.08125114440918,-34.837501525878906
1694680677890705200,12.563705078125,25.725000381469727,-17.08125114440918,-34.743751525878906
1694680677910700300,12.5837001953125,25.837501525878906,-17.08125114440918,-35.4375
1694680677930699000,12.603698974609374,25.631250381469727,-17.4375,-34.650001525878906
1694680677950693600,12.623693603515624,26.250001907348633,-17.4375,-34.931251525878906
1694680677970689300,12.643689208984375,25.51875114440918,-17.26875114440918,-35.04375076293945
1694680677990681300,12.663681396484375,25.725000381469727,-16.98750114440918,-35.04375076293945
1694680678010671400,12.68367138671875,26.568750381469727,-16.98750114440918,-34.72500228881836
1694680678030672000,12.703671875,25.931251525878906,-17.606250762939453,-34.85625076293945
1694680678050670000,12.723670166015625,25.931251525878906,-17.606250762939453,-35.04375076293945
1694680678070670800,12.7436708984375,25.818750381469727,-18.056251525878906,-35.17500305175781
1694680678090679000,12.763678955078126,25.931251525878906,-17.793750762939453,-34.96875
1694680678110681300,12.783681396484376,26.250001907348633,-17.606250762939453,-34.95000076293945
1694680678130690600,12.803690673828125,26.55000114440918,-17.700000762939453,-35.15625
1694680678150682000,12.82368212890625,25.837501525878906,-17.53125,-35.15625
1694680678170694000,12.84369384765625,25.837501525878906,-17.793750762939453,-35.0625
1694680678190698800,12.86369873046875,25.51875114440918,-17.4375,-34.95000076293945
1694680678210698000,12.883697998046875,25.312501907348633,-17.26875114440918,-35.25
1694680678230685400,12.903685546875,25.837501525878906,-17.53125,-35.25
1694680678250686200,12.923686279296875,25.406251907348633,-17.71875,-35.0625
1694680678270687500,12.9436875,25.837501525878906,-17.4375,-35.15625
1694680678290695400,12.9636953125,25.725000381469727,-17.53125,-35.15625
1694680678310678800,12.9836787109375,25.406251907348633,-17.53125,-35.36250305175781
1694680678330674200,13.003674072265625,25.818750381469727,-17.193750381469727,-35.75625228881836
1694680678350677500,13.023677490234375,25.51875114440918,-17.006250381469727,-35.34375
1694680678370675500,13.043675537109374,25.61250114440918,-17.17500114440918,-35.25
1694680678390676200,13.06367626953125,26.043750762939453,-17.006250381469727,-35.13750076293945
1694680678410674400,13.08367431640625,25.725000381469727,-17.08125114440918,-35.13750076293945
1694680678430673000,13.1036728515625,25.51875114440918,-17.08125114440918,-35.13750076293945
1694680678450675500,13.123675537109374,25.312501907348633,-16.725000381469727,-35.04375076293945
1694680678470684700,13.1436845703125,25.106250762939453,-16.89375114440918,-34.837501525878906
1694680678490687700,13.163687744140624,25.106250762939453,-16.818750381469727,-34.931251525878906
1694680678510685700,13.183685791015625,25.61250114440918,-16.818750381469727,-35.13750076293945
1694680678530691300,13.20369140625,25.312501907348633,-16.556251525878906,-35.23125076293945
1694680678550692000,13.223692138671876,25.725000381469727,-16.912500381469727,-35.23125076293945
1694680678570693400,13.243693359375,25.106250762939453,-16.912500381469727,-35.15625
1694680678590696000,13.263696044921875,25.218751907348633,-16.462501525878906,-34.837501525878906
1694680678610694000,13.28369384765625,24.881250381469727,-17.006250381469727,-35.15625
1694680678630691600,13.303691650390626,25.200000762939453,-16.462501525878906,-35.4375
1694680678650674000,13.323673828125,25.931251525878906,-16.89375114440918,-34.931251525878906
1694680678670667500,13.34366748046875,25.61250114440918,-17.26875114440918,-35.04375076293945
1694680678690670000,13.363670166015625,25.200000762939453,-17.45625114440918,-35.56875228881836
1694680678710658000,13.383657958984376,25.51875114440918,-17.26875114440918,-35.04375076293945
1694680678730663400,13.403663330078125,25.218751907348633,-17.25,-34.556251525878906
1694680678750664000,13.423663818359374,25.106250762939453,-17.26875114440918,-35.15625
1694680678770683400,13.443683349609374,24.993751525878906,-17.006250381469727,-35.45625305175781
1694680678790694400,13.4636943359375,25.106250762939453,-17.34375,-34.96875
1694680678810698500,13.483698486328125,25.312501907348633,-16.818750381469727,-35.23125076293945
1694680678830689300,13.503689208984374,24.881250381469727,-17.26875114440918,-35.45625305175781
1694680678850685200,13.523685302734375,24.881250381469727,-17.34375,-35.0625
1694680678870689000,13.54368896484375,25.200000762939453,-17.26875114440918,-35.26875305175781
1694680678890692600,13.563692626953125,24.787500381469727,-17.26875114440918,-35.26875305175781
1694680678910693000,13.583693115234375,25.837501525878906,-17.17500114440918,-35.23125076293945
1694680678930694100,13.603694091796875,25.312501907348633,-17.34375,-35.04375076293945
1694680678950690800,13.62369091796875,25.200000762939453,-17.26875114440918,-35.15625
1694680678970687700,13.643687744140625,25.200000762939453,-17.34375,-35.15625
1694680678990681300,13.663681396484375,25.106250762939453,-17.006250381469727,-35.15625
1694680679010681600,13.683681640625,24.67500114440918,-17.006250381469727,-35.36250305175781
1694680679030685200,13.703685302734375,25.200000762939453,-17.17500114440918,-35.25
1694680679050681600,13.723681640625,25.218751907348633,-16.818750381469727,-35.04375076293945
1694680679070679300,13.74367919921875,25.312501907348633,-16.818750381469727,-35.23125076293945
1694680679090685000,13.763684814453125,24.787500381469727,-16.725000381469727,-35.04375076293945
1694680679110685200,13.783685302734375,25.312501907348633,-16.818750381469727,-35.13750076293945
1694680679130692600,13.803692626953126,25.61250114440918,-16.912500381469727,-35.04375076293945
1694680679150683000,13.823682861328125,25.218751907348633,-16.818750381469727,-35.13750076293945
1694680679170694000,13.84369384765625,25.106250762939453,-16.462501525878906,-35.13750076293945
1694680679190698200,13.8636982421875,25.312501907348633,-16.462501525878906,-35.23125076293945
1694680679210697700,13.88369775390625,25.312501907348633,-16.631250381469727,-35.13750076293945
1694680679230686000,13.90368603515625,25.42500114440918,-16.725000381469727,-35.025001525878906
1694680679250690600,13.923690673828125,25.218751907348633,-16.631250381469727,-34.931251525878906
1694680679270690600,13.943690673828126,25.200000762939453,-16.668750762939453,-35.73750305175781
1694680679290690000,13.96368994140625,25.200000762939453,-17.006250381469727,-35.34375
1694680679310674000,13.983673828125,25.312501907348633,-16.912500381469727,-35.23125076293945
1694680679330668800,14.003668701171875,25.61250114440918,-16.912500381469727,-35.04375076293945
1694680679350661600,14.02366162109375,24.900001525878906,-16.818750381469727,-35.15625
1694680679370663700,14.04366357421875,25.837501525878906,-16.725000381469727,-35.13750076293945
1694680679390669300,14.06366943359375,25.218751907348633,-16.725000381469727,-34.837501525878906
1694680679410670000,14.083670166015626,25.61250114440918,-16.725000381469727,-35.13750076293945
1694680679430670600,14.103670654296875,25.200000762939453,-16.837501525878906,-35.34375
1694680679450674400,14.12367431640625,25.51875114440918,-17.006250381469727,-35.23125076293945
1694680679470684700,14.1436845703125,25.42500114440918,-16.89375114440918,-34.63125228881836
1694680679490688500,14.1636884765625,25.631250381469727,-16.818750381469727,-34.931251525878906
1694680679510687000,14.18368701171875,25.61250114440918,-17.006250381469727,-35.23125076293945
1694680679530692400,14.2036923828125,26.343751907348633,-16.89375114440918,-35.025001525878906
1694680679550686000,14.22368603515625,25.725000381469727,-17.17500114440918,-34.837501525878906
1694680679570690600,14.243690673828125,25.837501525878906,-16.98750114440918,-34.72500228881836
1694680679590694100,14.263694091796875,25.406251907348633,-17.006250381469727,-35.13750076293945
1694680679610692600,14.283692626953124,25.200000762939453,-17.17500114440918,-35.45625305175781
1694680679630691000,14.303691162109375,25.725000381469727,-16.912500381469727,-35.04375076293945
1694680679650674000,14.323673828125,25.61250114440918,-16.912500381469727,-35.23125076293945
1694680679670678800,14.3436787109375,25.51875114440918,-17.08125114440918,-35.04375076293945
1694680679690680600,14.3636806640625,26.043750762939453,-17.34375,-34.837501525878906
1694680679710673200,14.383673095703125,25.51875114440918,-16.912500381469727,-35.13750076293945
1694680679730685700,14.403685791015626,25.51875114440918,-16.98750114440918,-34.837501525878906
1694680679750680300,14.423680419921874,25.837501525878906,-17.17500114440918,-34.837501525878906
1694680679770694700,14.443694580078125,25.51875114440918,-17.17500114440918,-34.837501525878906
1694680679790701600,14.46370166015625,25.61250114440918,-16.912500381469727,-35.13750076293945
1694680679810702300,14.483702392578126,24.375001907348633,-16.837501525878906,-35.15625
1694680679830691000,14.503691162109375,25.51875114440918,-16.98750114440918,-34.837501525878906
1694680679850696700,14.52369677734375,25.725000381469727,-17.17500114440918,-35.04375076293945
1694680679870696700,14.54369677734375,26.043750762939453,-16.98750114440918,-34.931251525878906
1694680679890697500,14.563697509765625,25.406251907348633,-17.17500114440918,-35.04375076293945
1694680679910700800,14.58370068359375,26.137500762939453,-17.17500114440918,-34.931251525878906
1694680679930700500,14.603700439453124,25.312501907348633,-17.4375,-34.85625076293945
1694680679950687200,14.623687255859375,25.725000381469727,-17.08125114440918,-34.931251525878906
1694680679970684000,14.643683837890626,25.51875114440918,-17.17500114440918,-34.931251525878906
1694680679990677200,14.66367724609375,25.312501907348633,-17.53125,-34.96875
1694680680010673200,14.683673095703124,25.218751907348633,-17.08125114440918,-34.95000076293945
1694680680030673000,14.7036728515625,25.725000381469727,-16.98750114440918,-35.04375076293945
1694680680050676700,14.7236767578125,25.51875114440918,-17.26875114440918,-34.85625076293945
1694680680070687200,14.743687255859374,25.42500114440918,-16.818750381469727,-35.04375076293945
1694680680090691300,14.76369140625,26.043750762939453,-17.08125114440918,-35.23125076293945
1694680680110690300,14.783690185546876,25.42500114440918,-16.98750114440918,-34.837501525878906
1694680680130696400,14.803696533203125,25.312501907348633,-16.818750381469727,-35.23125076293945
1694680680150685700,14.823685791015626,25.406251907348633,-16.725000381469727,-35.23125076293945
1694680680170695700,14.84369580078125,25.106250762939453,-16.725000381469727,-34.931251525878906
1694680680190699500,14.863699462890626,25.200000762939453,-16.743751525878906,-35.34375
1694680680210690300,14.883690185546875,25.406251907348633,-17.08125114440918,-35.34375
1694680680230679300,14.90367919921875,25.312501907348633,-16.725000381469727,-35.13750076293945
1694680680250685700,14.923685791015625,25.218751907348633,-16.912500381469727,-35.04375076293945
1694680680270687000,14.94368701171875,25.312501907348633,-16.725000381469727,-35.13750076293945
1694680680290688500,14.9636884765625,25.631250381469727,-16.631250381469727,-34.931251525878906
1694680680310677000,14.983677001953126,25.106250762939453,-17.193750381469727,-35.56875228881836
1694680680330674700,15.0036748046875,25.631250381469727,-17.15625,-34.743751525878906
1694680680350666200,15.023666259765625,25.312501907348633,-17.08125114440918,-35.15625
1694680680370667300,15.043667236328124,25.837501525878906,-17.0625,-34.63125228881836
1694680680390672100,15.063672119140625,25.406251907348633,-17.08125114440918,-35.15625
1694680680410671900,15.083671875,25.51875114440918,-16.837501525878906,-35.4375
1694680680430671600,15.103671630859376,26.137500762939453,-17.17500114440918,-35.04375076293945
1694680680450686200,15.123686279296875,25.106250762939453,-17.006250381469727,-35.25
1694680680470693400,15.143693359375,25.406251907348633,-17.08125114440918,-35.25
1694680680490694700,15.163694580078126,25.106250762939453,-16.912500381469727,-35.34375
1694680680510690800,15.18369091796875,25.725000381469727,-17.006250381469727,-35.23125076293945
1694680680530696700,15.20369677734375,26.137500762939453,-17.17500114440918,-35.23125076293945
1694680680550688300,15.223688232421875,25.51875114440918,-16.725000381469727,-35.025001525878906
1694680680570695700,15.24369580078125,26.156251907348633,-17.0625,-34.72500228881836
1694680680590697500,15.263697509765626,25.931251525878906,-17.4375,-35.04375076293945
1694680680610687500,15.2836875,25.931251525878906,-17.418750762939453,-34.53750228881836
1694680680630686000,15.30368603515625,25.51875114440918,-17.36250114440918,-35.25
1694680680650669800,15.323669921875,26.568750381469727,-17.34375,-35.04375076293945
1694680680670665000,15.3436650390625,25.725000381469727,-17.08125114440918,-35.13750076293945
1694680680690669000,15.3636689453125,25.931251525878906,-17.17500114440918,-34.931251525878906
1694680680710664400,15.38366455078125,26.043750762939453,-17.006250381469727,-35.23125076293945
1694680680730679800,15.4036796875,25.837501525878906,-17.15625,-34.53750228881836
1694680680750676500,15.423676513671875,26.156251907348633,-17.231250762939453,-34.42500305175781
1694680680770692400,15.4436923828125,25.61250114440918,-17.4375,-34.85625076293945
1694680680790700500,15.463700439453126,25.931251525878906,-17.17500114440918,-35.13750076293945
1694680680810691000,15.483691162109375,26.137500762939453,-17.26875114440918,-35.23125076293945
1694680680830683600,15.50368359375,26.250001907348633,-16.98750114440918,-34.931251525878906
1694680680850691600,15.523691650390624,25.931251525878906,-17.34375,-34.53750228881836
1694680680870687200,15.543687255859375,26.137500762939453,-17.34375,-35.04375076293945
1694680680890694100,15.563694091796876,26.231250762939453,-17.34375,-35.13750076293945
1694680680910687700,15.583687744140626,25.725000381469727,-17.625,-35.0625
1694680680930689800,15.603689697265626,26.137500762939453,-17.4375,-35.15625
1694680680950679800,15.6236796875,26.043750762939453,-17.08125114440918,-35.13750076293945
1694680680970681600,15.643681640625,26.45625114440918,-17.418750762939453,-34.53750228881836
1694680680990679600,15.663679443359374,26.45625114440918,-17.231250762939453,-34.42500305175781
1694680681010671000,15.683671142578126,25.931251525878906,-17.17500114440918,-35.04375076293945
1694680681030672400,15.70367236328125,26.45625114440918,-17.34375,-35.04375076293945
1694680681050676700,15.7236767578125,26.250001907348633,-17.15625,-34.837501525878906
1694680681070687700,15.743687744140624,25.61250114440918,-17.606250762939453,-34.85625076293945
1694680681090692000,15.763692138671875,25.837501525878906,-16.98750114440918,-34.837501525878906
1694680681110691300,15.78369140625,25.631250381469727,-17.25,-34.743751525878906
1694680681130697500,15.803697509765625,26.137500762939453,-17.4375,-34.837501525878906
1694680681150679600,15.823679443359374,25.725000381469727,-17.26875114440918,-35.25
1694680681170679600,15.843679443359376,25.931251525878906,-17.53125,-35.25
1694680681190687500,15.8636875,26.043750762939453,-17.512500762939453,-34.85625076293945
1694680681210681900,15.883681884765625,26.137500762939453,-17.34375,-34.837501525878906
1694680681230674400,15.90367431640625,25.931251525878906,-17.53125,-35.15625
1694680681250683000,15.923682861328125,25.61250114440918,-17.34375,-35.04375076293945
1694680681270678300,15.94367822265625,25.931251525878906,-17.34375,-34.837501525878906
1694680681290681600,15.963681640625,25.931251525878906,-17.26875114440918,-35.23125076293945
1694680681310669000,15.9836689453125,25.51875114440918,-17.17500114440918,-34.837501525878906
1694680681330667500,16.00366748046875,25.61250114440918,-17.53125,-35.04375076293945
1694680681350666000,16.023666015625,25.631250381469727,-17.25,-34.53750228881836
1694680681370675200,16.04367529296875,25.61250114440918,-17.26875114440918,-35.15625
1694680681390689800,16.063689697265627,25.631250381469727,-17.4375,-34.743751525878906
1694680681410685700,16.083685791015625,25.61250114440918,-17.4375,-35.15625
1694680681430682600,16.1036826171875,25.42500114440918,-17.34375,-34.743751525878906
1694680681450682600,16.1236826171875,26.043750762939453,-17.25,-34.53750228881836
1694680681470689800,16.143689697265625,25.931251525878906,-17.34375,-35.15625
1694680681490691300,16.16369140625,25.837501525878906,-17.34375,-34.837501525878906
1694680681510688000,16.18368798828125,25.61250114440918,-17.625,-35.0625
1694680681530685200,16.203685302734375,26.137500762939453,-17.53125,-35.15625
1694680681550696000,16.223696044921876,25.51875114440918,-17.53125,-34.96875
1694680681570690600,16.243690673828127,26.043750762939453,-17.26875114440918,-34.931251525878906
1694680681590693400,16.263693359375,25.218751907348633,-17.34375,-34.85625076293945
1694680681610683600,16.28368359375,26.250001907348633,-17.34375,-34.837501525878906
1694680681630672600,16.303672607421873,25.837501525878906,-17.17500114440918,-35.23125076293945
1694680681650671400,16.32367138671875,25.51875114440918,-17.4375,-34.95000076293945
1694680681670672100,16.343672119140624,25.61250114440918,-17.53125,-35.15625
1694680681690665500,16.36366552734375,25.537500381469727,-17.25,-34.44375228881836
1694680681710662000,16.383661865234377,25.725000381469727,-17.4375,-34.85625076293945
1694680681730678000,16.403677978515624,25.931251525878906,-17.34375,-35.04375076293945
1694680681750686700,16.423686767578126,25.51875114440918,-17.26875114440918,-34.85625076293945
1694680681770700500,16.443700439453124,25.931251525878906,-17.26875114440918,-35.04375076293945
1694680681790706700,16.463706787109373,25.725000381469727,-17.26875114440918,-34.837501525878906
1694680681810706700,16.483706787109377,25.931251525878906,-17.34375,-35.15625
1694680681830694700,16.503694580078125,26.043750762939453,-17.4375,-35.04375076293945
1694680681850699300,16.52369921875,25.61250114440918,-17.512500762939453,-34.95000076293945
1694680681870693000,16.543693115234376,26.137500762939453,-17.4375,-35.04375076293945
1694680681890690000,16.56368994140625,26.043750762939453,-17.4375,-34.837501525878906
1694680681910695000,16.58369482421875,25.725000381469727,-17.08125114440918,-35.04375076293945
1694680681930687500,16.6036875,25.725000381469727,-17.4375,-34.85625076293945
1694680681950677200,16.62367724609375,25.42500114440918,-17.34375,-34.743751525878906
1694680681970676500,16.643676513671874,25.631250381469727,-17.26875114440918,-34.837501525878906
1694680681990674400,16.66367431640625,25.837501525878906,-17.512500762939453,-34.23750305175781
1694680682010667300,16.683667236328127,25.837501525878906,-17.606250762939453,-35.04375076293945
1694680682030669000,16.7036689453125,25.931251525878906,-17.08125114440918,-35.04375076293945
1694680682050674400,16.72367431640625,25.837501525878906,-17.53125,-35.04375076293945
1694680682070686200,16.743686279296874,25.931251525878906,-17.4375,-34.95000076293945
1694680682090691300,16.76369140625,26.250001907348633,-17.34375,-34.931251525878906
1694680682110690600,16.783690673828126,26.043750762939453,-17.17500114440918,-35.04375076293945
1694680682130697200,16.803697265625,25.312501907348633,-17.4375,-35.0625
1694680682150686500,16.8236865234375,25.61250114440918,-17.512500762939453,-34.95000076293945
1694680682170696400,16.843696533203126,25.42500114440918,-17.34375,-34.85625076293945
1694680682190692600,16.863692626953124,24.881250381469727,-17.287500381469727,-35.56875228881836
1694680682210689500,16.883689453125,25.218751907348633,-17.08125114440918,-35.15625
1694680682230678800,16.9036787109375,25.725000381469727,-17.17500114440918,-34.931251525878906
1694680682250674400,16.92367431640625,25.218751907348633,-16.89375114440918,-34.837501525878906
1694680682270682000,16.94368212890625,25.200000762939453,-17.36250114440918,-35.26875305175781
1694680682290684200,16.96368408203125,25.218751907348633,-17.34375,-34.95000076293945
1694680682310678500,16.983678466796874,24.993751525878906,-17.17500114440918,-35.45625305175781
1694680682330684700,17.0036845703125,25.51875114440918,-17.512500762939453,-34.743751525878906
1694680682350676500,17.023676513671877,25.406251907348633,-17.34375,-35.04375076293945
1694680682370682400,17.043682373046874,25.51875114440918,-16.98750114440918,-34.931251525878906
1694680682390694400,17.0636943359375,25.312501907348633,-17.17500114440918,-35.04375076293945
1694680682410688300,17.083688232421874,25.837501525878906,-17.34375,-34.95000076293945
1694680682430672600,17.103672607421874,25.61250114440918,-17.53125,-35.15625
1694680682450674400,17.12367431640625,25.106250762939453,-17.006250381469727,-35.15625
1694680682470683100,17.14368310546875,25.218751907348633,-17.08125114440918,-35.04375076293945
1694680682490686200,17.163686279296876,25.51875114440918,-17.17500114440918,-34.837501525878906
1694680682510687700,17.183687744140624,25.51875114440918,-17.34375,-34.95000076293945
1694680682530686500,17.2036865234375,25.631250381469727,-17.0625,-34.63125228881836
1694680682550687700,17.223687744140626,25.406251907348633,-17.26875114440918,-35.15625
1694680682570696000,17.243696044921876,25.106250762939453,-17.17500114440918,-35.15625
1694680682590690300,17.263690185546874,25.218751907348633,-17.26875114440918,-34.95000076293945
1694680682610681300,17.283681396484376,25.51875114440918,-17.53125,-35.26875305175781
1694680682630681900,17.303681884765624,25.837501525878906,-17.08125114440918,-35.04375076293945
1694680682650666800,17.323666748046875,25.406251907348633,-17.34375,-35.04375076293945
1694680682670662700,17.34366259765625,25.218751907348633,-17.006250381469727,-35.15625
1694680682690674700,17.3636748046875,25.51875114440918,-17.36250114440918,-35.56875228881836
1694680682710669300,17.38366943359375,25.312501907348633,-16.912500381469727,-35.13750076293945
1694680682730683600,17.40368359375,25.218751907348633,-17.26875114440918,-35.04375076293945
1694680682750690800,17.42369091796875,25.42500114440918,-17.08125114440918,-35.04375076293945
1694680682770703400,17.443703369140625,25.218751907348633,-17.26875114440918,-35.04375076293945
1694680682790708500,17.46370849609375,25.42500114440918,-16.89375114440918,-34.837501525878906
1694680682810696700,17.48369677734375,24.993751525878906,-17.45625114440918,-35.26875305175781
1694680682830686500,17.5036865234375,25.312501907348633,-17.08125114440918,-35.25
1694680682850685400,17.523685546875,25.218751907348633,-17.17500114440918,-35.15625
1694680682870691300,17.54369140625,25.106250762939453,-17.17500114440918,-34.95000076293945
1694680682890689000,17.56368896484375,25.725000381469727,-17.08125114440918,-35.13750076293945
1694680682910694700,17.583694580078124,25.61250114440918,-17.08125114440918,-35.13750076293945
1694680682930687500,17.6036875,25.725000381469727,-17.08125114440918,-35.04375076293945
1694680682950678300,17.62367822265625,25.42500114440918,-17.34375,-34.85625076293945
1694680682970677800,17.643677734375,25.106250762939453,-17.08125114440918,-34.85625076293945
1694680682990677200,17.66367724609375,25.61250114440918,-17.26875114440918,-35.25
1694680683010669800,17.683669921875,25.106250762939453,-17.34375,-34.743751525878906
1694680683030673200,17.703673095703124,25.312501907348633,-17.700000762939453,-34.96875
1694680683050677500,17.723677490234376,25.61250114440918,-17.625,-35.36250305175781
1694680683070688300,17.743688232421874,25.106250762939453,-17.53125,-35.0625
1694680683090692900,17.76369287109375,25.61250114440918,-17.4375,-35.15625
1694680683110691600,17.783691650390626,25.61250114440918,-17.625,-35.26875305175781
1694680683130697700,17.80369775390625,25.51875114440918,-17.793750762939453,-35.36250305175781
1694680683150698000,17.823697998046875,25.106250762939453,-17.512500762939453,-34.76250076293945
1694680683170705200,17.843705078125,25.406251907348633,-17.26875114440918,-35.15625
1694680683190700800,17.86370068359375,25.42500114440918,-16.89375114440918,-34.837501525878906
1694680683210698500,17.883698486328125,25.42500114440918,-17.26875114440918,-34.95000076293945
1694680683230686000,17.90368603515625,25.51875114440918,-16.89375114440918,-34.743751525878906
1694680683250671600,17.923671630859374,25.312501907348633,-16.98750114440918,-34.931251525878906
1694680683270667800,17.943667724609377,25.837501525878906,-17.4375,-35.04375076293945
1694680683290673000,17.9636728515625,25.631250381469727,-17.4375,-34.743751525878906
1694680683310662100,17.983662109375,25.406251907348633,-17.53125,-35.15625
1694680683330660900,18.003660888671874,25.42500114440918,-17.08125114440918,-35.04375076293945
1694680683350664000,18.023663818359374,25.312501907348633,-17.26875114440918,-35.25
1694680683370674200,18.043674072265624,25.42500114440918,-16.98750114440918,-34.63125228881836
1694680683390689300,18.063689208984375,25.725000381469727,-17.34375,-35.25
1694680683410697000,18.083697021484376,24.993751525878906,-17.4375,-35.0625
1694680683430690800,18.10369091796875,25.406251907348633,-17.4375,-35.0625
1694680683450688800,18.123688720703125,25.312501907348633,-17.34375,-34.85625076293945
1694680683470694400,18.1436943359375,25.725000381469727,-17.08125114440918,-35.13750076293945
1694680683490694400,18.1636943359375,25.725000381469727,-17.006250381469727,-35.13750076293945
1694680683510683400,18.183683349609375,25.725000381469727,-17.512500762939453,-34.650001525878906
1694680683530680800,18.203680908203125,24.993751525878906,-17.34375,-35.15625
1694680683550683100,18.22368310546875,25.51875114440918,-17.17500114440918,-35.04375076293945
1694680683570692000,18.243692138671875,24.900001525878906,-16.98750114440918,-34.85625076293945
1694680683590687200,18.263687255859374,25.218751907348633,-16.98750114440918,-34.743751525878906
1694680683610680000,18.28368017578125,25.631250381469727,-17.08125114440918,-34.837501525878906
1694680683630681000,18.30368115234375,24.993751525878906,-17.4375,-34.85625076293945
1694680683650666200,18.323666259765623,25.42500114440918,-17.34375,-34.85625076293945
1694680683670662400,18.343662353515626,25.51875114440918,-17.08125114440918,-35.04375076293945
1694680683690674700,18.3636748046875,25.406251907348633,-17.36250114440918,-35.25
1694680683710669600,18.383669677734375,25.61250114440918,-17.4375,-35.15625
1694680683730684000,18.403683837890625,25.61250114440918,-17.512500762939453,-34.95000076293945
1694680683750691000,18.423691162109375,25.218751907348633,-17.4375,-34.85625076293945
1694680683770703600,18.44370361328125,24.993751525878906,-17.26875114440918,-35.15625
1694680683790708700,18.463708740234374,25.61250114440918,-17.26875114440918,-35.04375076293945
1694680683810696400,18.483696533203126,25.837501525878906,-17.36250114440918,-35.34375
1694680683830686200,18.503686279296875,24.58125114440918,-17.08125114440918,-35.15625
1694680683850686200,18.523686279296875,25.42500114440918,-17.08125114440918,-35.04375076293945
1694680683870697200,18.543697265625,25.312501907348633,-17.34375,-35.04375076293945
1694680683890693600,18.563693603515624,25.200000762939453,-17.08125114440918,-35.25
1694680683910690600,18.583690673828126,25.61250114440918,-17.34375,-35.15625
1694680683930684000,18.603683837890625,25.106250762939453,-17.34375,-35.0625
1694680683950674400,18.62367431640625,24.58125114440918,-17.08125114440918,-34.85625076293945
1694680683970686500,18.6436865234375,25.931251525878906,-16.912500381469727,-35.34375
1694680683990680300,18.663680419921874,25.406251907348633,-17.287500381469727,-35.66250228881836
1694680684010679000,18.683678955078125,25.106250762939453,-16.98750114440918,-34.95000076293945
1694680684030677800,18.703677734375,25.931251525878906,-17.26875114440918,-35.34375
1694680684050680600,18.7236806640625,25.42500114440918,-17.512500762939453,-34.743751525878906
1694680684070690000,18.74368994140625,25.51875114440918,-17.08125114440918,-34.837501525878906
1694680684090693600,18.763693603515627,25.61250114440918,-17.08125114440918,-35.34375
1694680684110691800,18.78369189453125,25.837501525878906,-17.17500114440918,-34.837501525878906
1694680684130697500,18.803697509765627,25.312501907348633,-17.4375,-35.15625
1694680684150697700,18.82369775390625,25.312501907348633,-17.17500114440918,-35.04375076293945
1694680684170709200,18.843709228515625,25.837501525878906,-17.17500114440918,-34.837501525878906
1694680684190702800,18.863702880859375,25.106250762939453,-17.4375,-34.76250076293945
1694680684210700300,18.8837001953125,25.725000381469727,-17.34375,-35.15625
1694680684230686000,18.90368603515625,25.312501907348633,-17.006250381469727,-35.34375
1694680684250671000,18.923671142578126,25.106250762939453,-17.700000762939453,-34.96875
1694680684270667000,18.9436669921875,25.51875114440918,-17.4375,-34.85625076293945
1694680684290671600,18.963671630859373,25.725000381469727,-17.71875,-35.26875305175781
1694680684310666000,18.983666015625,25.837501525878906,-17.512500762939453,-34.95000076293945
1694680684330667000,19.0036669921875,25.106250762939453,-16.98750114440918,-34.95000076293945
1694680684350668500,19.02366845703125,26.231250762939453,-17.4375,-35.13750076293945
1694680684370677200,19.04367724609375,25.837501525878906,-17.08125114440918,-35.13750076293945
1694680684390691600,19.063691650390624,25.725000381469727,-17.512500762939453,-34.95000076293945
1694680684410698200,19.0836982421875,25.61250114440918,-17.26875114440918,-35.25
1694680684430691600,19.103691650390626,25.61250114440918,-17.4375,-34.95000076293945
1694680684450689000,19.12368896484375,25.106250762939453,-17.34375,-35.15625
1694680684470694100,19.143694091796874,25.725000381469727,-17.26875114440918,-34.931251525878906
1694680684490694000,19.16369384765625,25.931251525878906,-16.89375114440918,-35.025001525878906
1694680684510683100,19.18368310546875,25.631250381469727,-16.98750114440918,-34.931251525878906
1694680684530696200,19.2036962890625,25.931251525878906,-17.17500114440918,-34.931251525878906
1694680684550694700,19.223694580078124,25.61250114440918,-17.4375,-35.25
1694680684570701600,19.24370166015625,25.51875114440918,-17.606250762939453,-34.85625076293945
1694680684590694100,19.263694091796875,25.51875114440918,-17.34375,-34.85625076293945
1694680684610684700,19.2836845703125,25.837501525878906,-17.34375,-35.04375076293945
1694680684630684200,19.30368408203125,25.106250762939453,-17.45625114440918,-35.26875305175781
1694680684650668500,19.32366845703125,26.137500762939453,-17.71875,-35.36250305175781
1694680684670670800,19.3436708984375,25.61250114440918,-17.17500114440918,-34.931251525878906
1694680684690680600,19.3636806640625,26.137500762939453,-17.34375,-34.931251525878906
1694680684710673400,19.38367333984375,25.51875114440918,-17.17500114440918,-34.837501525878906
1694680684730686200,19.403686279296874,25.61250114440918,-17.34375,-34.85625076293945
1694680684750680800,19.423680908203124,26.043750762939453,-17.34375,-35.04375076293945
1694680684770695200,19.443695068359375,26.250001907348633,-17.606250762939453,-34.743751525878906
1694680684790701800,19.463701904296876,25.837501525878906,-17.606250762939453,-34.35000228881836
1694680684810691300,19.48369140625,25.931251525878906,-16.98750114440918,-34.931251525878906
1694680684830692400,19.5036923828125,25.406251907348633,-17.36250114440918,-35.25
1694680684850690300,19.523690185546876,26.137500762939453,-17.34375,-35.04375076293945
1694680684870692600,19.543692626953124,26.043750762939453,-17.34375,-34.743751525878906
1694680684890701300,19.563701416015626,25.931251525878906,-17.34375,-35.04375076293945
1694680684910685200,19.583685302734374,25.837501525878906,-17.34375,-34.743751525878906
1694680684930679600,19.603679443359376,26.568750381469727,-17.512500762939453,-34.837501525878906
1694680684950672100,19.623672119140625,26.043750762939453,-17.17500114440918,-35.13750076293945
1694680684970678500,19.643678466796874,25.61250114440918,-17.868751525878906,-34.66875076293945
1694680684990676200,19.66367626953125,25.61250114440918,-17.53125,-35.36250305175781
1694680685010676500,19.683676513671877,25.837501525878906,-17.700000762939453,-34.96875
1694680685030677000,19.703677001953125,25.51875114440918,-17.4375,-34.85625076293945
1694680685050680300,19.723680419921877,26.043750762939453,-17.606250762939453,-34.85625076293945
1694680685070690300,19.743690185546875,26.250001907348633,-17.15625,-34.53750228881836
1694680685090694000,19.76369384765625,25.931251525878906,-17.26875114440918,-35.04375076293945
1694680685110692400,19.7836923828125,26.043750762939453,-17.08125114440918,-35.04375076293945
1694680685130698000,19.803697998046875,25.725000381469727,-17.34375,-34.95000076293945
1694680685150698000,19.823697998046875,26.043750762939453,-17.34375,-34.837501525878906
1694680685170697500,19.843697509765626,26.250001907348633,-17.15625,-34.837501525878906
1694680685190697000,19.863697021484374,25.725000381469727,-17.53125,-35.04375076293945
1694680685210696000,19.883696044921876,26.043750762939453,-17.34375,-34.63125228881836
1694680685230684000,19.903683837890625,26.043750762939453,-17.4375,-34.837501525878906
1694680685250670300,19.92367041015625,25.931251525878906,-17.26875114440918,-35.23125076293945
1694680685270667300,19.943667236328125,25.725000381469727,-17.26875114440918,-35.15625
1694680685290672400,19.96367236328125,25.931251525878906,-17.34375,-34.931251525878906
1694680685310661400,19.983661376953126,25.725000381469727,-17.4375,-34.95000076293945
1694680685330660000,20.00366015625,25.51875114440918,-17.34375,-34.85625076293945
1694680685350663700,20.02366357421875,25.837501525878906,-17.512500762939453,-34.85625076293945
1694680685370674200,20.043674072265624,25.51875114440918,-17.15625,-34.743751525878906
1694680685390689300,20.063689208984375,26.250001907348633,-17.512500762939453,-34.743751525878906
1694680685410697200,20.083697265625,26.043750762939453,-17.606250762939453,-35.04375076293945
1694680685430690800,20.10369091796875,26.043750762939453,-17.53125,-35.04375076293945
1694680685450688800,20.123688720703125,26.250001907348633,-17.34375,-34.931251525878906
1694680685470694400,20.1436943359375,26.043750762939453,-17.15625,-34.837501525878906
1694680685490698800,20.16369873046875,26.231250762939453,-17.53125,-35.34375
1694680685510685700,20.183685791015623,25.931251525878906,-17.418750762939453,-34.53750228881836
1694680685530690600,20.203690673828124,25.61250114440918,-17.606250762939453,-34.85625076293945
1694680685550690000,20.22368994140625,26.250001907348633,-17.34375,-35.04375076293945
1694680685570696700,20.24369677734375,25.312501907348633,-17.26875114440918,-35.04375076293945
1694680685590690600,20.263690673828126,26.043750762939453,-17.26875114440918,-34.931251525878906
1694680685610681000,20.28368115234375,26.137500762939453,-17.34375,-35.23125076293945
1694680685630681000,20.30368115234375,25.837501525878906,-17.25,-34.837501525878906
1694680685650668800,20.323668701171876,25.837501525878906,-17.700000762939453,-34.85625076293945
1694680685670671400,20.34367138671875,25.931251525878906,-17.08125114440918,-35.13750076293945
1694680685690681300,20.363681396484374,25.51875114440918,-17.4375,-34.85625076293945
1694680685710674200,20.383674072265624,25.837501525878906,-17.17500114440918,-34.931251525878906
1694680685730687000,20.40368701171875,25.218751907348633,-17.25,-34.650001525878906
1694680685750681600,20.423681640625,26.137500762939453,-17.26875114440918,-35.04375076293945
1694680685770695700,20.44369580078125,25.931251525878906,-17.606250762939453,-34.743751525878906
1694680685790702600,20.46370263671875,25.837501525878906,-17.34375,-34.837501525878906
1694680685810703000,20.483703125,25.51875114440918,-17.17500114440918,-34.837501525878906
1694680685830700300,20.5037001953125,25.725000381469727,-17.4375,-35.25
1694680685850700800,20.52370068359375,25.51875114440918,-17.4375,-34.95000076293945
1694680685870700000,20.543699951171874,25.51875114440918,-17.26875114440918,-34.85625076293945
1694680685890706400,20.56370654296875,26.156251907348633,-17.25,-34.743751525878906
1694680685910688500,20.5836884765625,26.043750762939453,-17.08125114440918,-35.23125076293945
1694680685930681300,20.603681396484376,25.931251525878906,-17.34375,-35.25
1694680685950676700,20.6236767578125,26.137500762939453,-17.700000762939453,-35.04375076293945
1694680685970665000,20.6436650390625,26.250001907348633,-17.34375,-34.837501525878906
1694680685990663700,20.66366357421875,25.631250381469727,-17.08125114440918,-34.837501525878906
1694680686010666500,20.68366650390625,26.043750762939453,-17.26875114440918,-34.931251525878906
1694680686030669300,20.70366943359375,25.725000381469727,-17.08125114440918,-35.04375076293945
1694680686050675200,20.72367529296875,25.837501525878906,-16.89375114440918,-34.837501525878906
1694680686070687000,20.74368701171875,25.837501525878906,-17.08125114440918,-35.04375076293945
1694680686090692000,20.763692138671875,25.931251525878906,-17.418750762939453,-34.33125305175781
1694680686110691600,20.783691650390626,25.725000381469727,-17.4375,-34.556251525878906
1694680686130698000,20.803697998046875,26.343751907348633,-17.606250762939453,-35.04375076293945
1694680686150698500,20.823698486328126,26.343751907348633,-17.53125,-35.15625
1694680686170699800,20.84369970703125,25.931251525878906,-17.512500762939453,-34.650001525878906
1694680686190702600,20.86370263671875,25.931251525878906,-17.17500114440918,-35.23125076293945
1694680686210700300,20.8837001953125,26.043750762939453,-17.34375,-35.04375076293945
1694680686230686500,20.9036865234375,25.631250381469727,-17.17500114440918,-34.837501525878906
1694680686250671900,20.923671875,25.61250114440918,-17.17500114440918,-35.04375076293945
1694680686270667800,20.943667724609377,26.250001907348633,-17.17500114440918,-34.931251525878906
1694680686290684200,20.96368408203125,25.837501525878906,-17.25,-34.63125228881836
1694680686310670300,20.98367041015625,26.250001907348633,-17.512500762939453,-34.931251525878906
1694680686330674400,21.00367431640625,25.61250114440918,-17.53125,-35.36250305175781
1694680686350674000,21.023673828125,26.137500762939453,-17.17500114440918,-35.23125076293945
1694680686370680800,21.043680908203125,26.250001907348633,-17.34375,-35.04375076293945
1694680686390693600,21.063693603515624,25.725000381469727,-17.17500114440918,-35.13750076293945
1694680686410699500,21.083699462890625,25.725000381469727,-17.34375,-34.85625076293945
1694680686430692600,21.103692626953126,25.837501525878906,-17.53125,-35.04375076293945
1694680686450689300,21.123689208984374,26.137500762939453,-17.4375,-35.04375076293945
1694680686470694100,21.143694091796874,25.837501525878906,-17.17500114440918,-35.04375076293945
1694680686490686000,21.16368603515625,25.931251525878906,-17.006250381469727,-35.23125076293945
1694680686510697000,21.183697021484374,25.837501525878906,-17.26875114440918,-35.25
1694680686530699300,21.20369921875,26.36250114440918,-17.15625,-34.63125228881836
1694680686550696700,21.22369677734375,25.42500114440918,-17.25,-34.743751525878906
1694680686570694000,21.24369384765625,26.250001907348633,-16.98750114440918,-34.931251525878906
1694680686590688000,21.26368798828125,25.725000381469727,-17.17500114440918,-35.04375076293945
1694680686610679300,21.28367919921875,25.725000381469727,-17.26875114440918,-34.931251525878906
1694680686630679800,21.3036796875,25.931251525878906,-16.98750114440918,-34.931251525878906
1694680686650665700,21.323665771484375,26.043750762939453,-17.34375,-35.04375076293945
1694680686670669300,21.34366943359375,25.931251525878906,-17.08125114440918,-35.04375076293945
1694680686690679600,21.363679443359374,26.043750762939453,-16.98750114440918,-34.63125228881836
1694680686710672600,21.383672607421875,25.931251525878906,-16.89375114440918,-34.72500228881836
1694680686730686000,21.40368603515625,26.156251907348633,-16.98750114440918,-34.72500228881836
1694680686750680800,21.423680908203124,25.837501525878906,-16.837501525878906,-35.53125
1694680686770695200,21.443695068359375,25.931251525878906,-16.89375114440918,-34.72500228881836
1694680686790702000,21.4637021484375,25.931251525878906,-16.98750114440918,-34.931251525878906
1694680686810703000,21.483703125,26.137500762939453,-16.912500381469727,-35.13750076293945
1694680686830692000,21.503692138671877,25.631250381469727,-16.98750114440918,-34.837501525878906
1694680686850705200,21.523705078125,25.725000381469727,-16.98750114440918,-35.04375076293945
1694680686870703600,21.54370361328125,26.156251907348633,-16.89375114440918,-34.931251525878906
1694680686890709200,21.563709228515624,26.043750762939453,-16.98750114440918,-35.025001525878906
1694680686910690300,21.583690185546875,25.61250114440918,-17.26875114440918,-35.15625
1694680686930682600,21.6036826171875,25.61250114440918,-17.53125,-35.15625
1694680686950687200,21.623687255859377,25.931251525878906,-16.837501525878906,-35.4375
1694680686970673200,21.643673095703125,25.631250381469727,-17.08125114440918,-34.837501525878906
1694680686990676700,21.6636767578125,26.45625114440918,-17.08125114440918,-35.23125076293945
1694680687010676000,21.683676025390625,25.837501525878906,-17.26875114440918,-35.04375076293945
1694680687030676000,21.703676025390624,26.043750762939453,-17.0625,-34.63125228881836
1694680687050679600,21.723679443359377,25.931251525878906,-17.17500114440918,-35.13750076293945
1694680687070689300,21.743689208984375,25.61250114440918,-17.26875114440918,-35.04375076293945
1694680687090692900,21.76369287109375,25.931251525878906,-17.0625,-34.63125228881836
1694680687110702800,21.783702880859376,25.837501525878906,-16.98750114440918,-35.04375076293945
1694680687130706000,21.803705810546877,25.931251525878906,-16.98750114440918,-34.63125228881836
1694680687150696200,21.8236962890625,26.043750762939453,-16.98750114440918,-34.837501525878906
1694680687170684700,21.8436845703125,25.51875114440918,-16.98750114440918,-34.837501525878906
1694680687190690300,21.863690185546876,25.725000381469727,-16.98750114440918,-34.931251525878906
1694680687210691000,21.883691162109375,24.993751525878906,-17.006250381469727,-35.04375076293945
1694680687230680300,21.903680419921876,25.51875114440918,-17.26875114440918,-35.25
1694680687250667300,21.923667236328125,25.51875114440918,-16.912500381469727,-35.04375076293945
1694680687270665000,21.9436650390625,25.406251907348633,-17.08125114440918,-35.34375
1694680687290674200,21.963674072265626,25.61250114440918,-16.912500381469727,-35.13750076293945
1694680687310668500,21.98366845703125,25.61250114440918,-17.26875114440918,-34.95000076293945
1694680687330674000,22.003673828125,25.631250381469727,-17.08125114440918,-34.837501525878906
1694680687350674200,22.023674072265624,25.818750381469727,-17.006250381469727,-35.64375305175781
1694680687370681600,22.043681640625,25.61250114440918,-17.08125114440918,-35.04375076293945
1694680687390694700,22.063694580078124,25.51875114440918,-17.34375,-34.95000076293945
1694680687410700500,22.083700439453125,25.837501525878906,-17.512500762939453,-34.95000076293945
1694680687430692900,22.10369287109375,25.61250114440918,-17.26875114440918,-34.95000076293945
1694680687450701000,22.123701171875,25.837501525878906,-17.34375,-34.743751525878906
1694680687470703000,22.143703125,26.137500762939453,-17.34375,-34.837501525878906
1694680687490694100,22.163694091796874,25.51875114440918,-17.006250381469727,-35.4375
1694680687510697000,22.183697021484374,25.51875114440918,-17.08125114440918,-35.13750076293945
1694680687530687200,22.203687255859375,25.42500114440918,-17.0625,-34.63125228881836
1694680687550686700,22.223686767578126,25.218751907348633,-16.98750114440918,-34.931251525878906
1694680687570686200,22.243686279296874,25.61250114440918,-16.98750114440918,-35.04375076293945
1694680687590682600,22.2636826171875,25.42500114440918,-17.006250381469727,-35.04375076293945
1694680687610682400,22.283682373046876,25.51875114440918,-17.08125114440918,-35.04375076293945
1694680687630684000,22.303683837890624,25.200000762939453,-17.17500114440918,-35.34375
1694680687650676000,22.323676025390625,25.725000381469727,-17.4375,-35.04375076293945
1694680687670688300,22.343688232421876,25.42500114440918,-17.08125114440918,-34.931251525878906
1694680687690694100,22.363694091796877,25.931251525878906,-17.08125114440918,-34.837501525878906
1694680687710683100,22.38368310546875,25.931251525878906,-17.17500114440918,-35.13750076293945
1694680687730692900,22.40369287109375,25.312501907348633,-17.08125114440918,-34.837501525878906
1694680687750685200,22.423685302734373,25.61250114440918,-17.08125114440918,-34.931251525878906
1694680687770697500,22.443697509765624,25.200000762939453,-17.26875114440918,-35.15625
1694680687790703000,22.463703125,25.218751907348633,-16.98750114440918,-34.931251525878906
1694680687810705000,22.483704833984376,25.312501907348633,-17.26875114440918,-35.25
1694680687830693400,22.503693359375,25.106250762939453,-16.725000381469727,-35.13750076293945
1694680687850687000,22.52368701171875,25.406251907348633,-17.4375,-35.0625
1694680687870689300,22.543689208984375,25.200000762939453,-17.08125114440918,-35.25
1694680687890690800,22.56369091796875,25.631250381469727,-17.34375,-34.650001525878906
1694680687910677500,22.583677490234376,22.912500381469727,-17.17500114440918,-34.875
1694680687930674000,22.603673828125,23.231250762939453,-16.481250762939453,-35.15625
1694680687950667300,22.623667236328124,25.106250762939453,-17.08125114440918,-34.650001525878906
1694680687970669800,22.643669921875,24.900001525878906,-17.4375,-34.85625076293945
1694680687990676000,22.663676025390625,24.58125114440918,-17.625,-35.26875305175781
1694680688010676700,22.6836767578125,24.881250381469727,-17.17500114440918,-35.04375076293945
1694680688030677200,22.70367724609375,22.51875114440918,-16.556251525878906,-34.875
1694680688050681000,22.72368115234375,24.375001907348633,-17.26875114440918,-35.0625
1694680688070691300,22.74369140625,23.231250762939453,-16.631250381469727,-34.462501525878906
1694680688090695000,22.76369482421875,25.51875114440918,-17.4375,-34.650001525878906
1694680688110693000,22.783693115234374,25.51875114440918,-17.25,-34.63125228881836
1694680688130698800,22.80369873046875,25.218751907348633,-17.25,-34.556251525878906
1694680688150707000,22.82370703125,25.725000381469727,-17.606250762939453,-34.743751525878906
1694680688170697200,22.843697265625,25.106250762939453,-17.4375,-34.66875076293945
1694680688190689000,22.86368896484375,25.818750381469727,-17.4375,-35.34375
1694680688210689500,22.883689453125,25.837501525878906,-17.15625,-34.53750228881836
1694680688230678500,22.903678466796876,25.725000381469727,-17.34375,-34.743751525878906
1694680688250669000,22.9236689453125,24.787500381469727,-16.837501525878906,-35.64375305175781
1694680688270667000,22.9436669921875,24.168750762939453,-16.912500381469727,-34.96875
1694680688290673200,22.963673095703125,25.312501907348633,-17.25,-34.44375228881836
1694680688310664700,22.983664794921875,25.61250114440918,-17.512500762939453,-34.85625076293945
1694680688330670800,23.0036708984375,24.468751907348633,-17.193750381469727,-35.66250228881836
1694680688350672100,23.023672119140624,25.106250762939453,-17.793750762939453,-35.17500305175781
1694680688370680300,23.043680419921873,23.53125,-16.912500381469727,-35.36250305175781
1694680688390694000,23.06369384765625,22.931251525878906,-16.387500762939453,-34.96875
1694680688410688800,23.083688720703126,25.312501907348633,-17.4375,-34.650001525878906
1694680688430684200,23.10368408203125,25.537500381469727,-17.15625,-34.53750228881836
1694680688450684000,23.123683837890624,24.48750114440918,-17.17500114440918,-34.96875
1694680688470690300,23.143690185546873,24.993751525878906,-17.17500114440918,-35.04375076293945
1694680688490685700,23.163685791015624,25.106250762939453,-16.98750114440918,-34.33125305175781
1694680688510695400,23.1836953125,25.312501907348633,-17.34375,-34.95000076293945
1694680688530698800,23.20369873046875,25.406251907348633,-17.4375,-35.15625
1694680688550689000,23.22368896484375,25.106250762939453,-16.89375114440918,-34.743751525878906
1694680688570688300,23.243688232421874,25.406251907348633,-17.700000762939453,-34.96875
1694680688590683600,23.26368359375,25.312501907348633,-17.17500114440918,-34.95000076293945
1694680688610693600,23.283693603515626,25.312501907348633,-16.98750114440918,-34.931251525878906
1694680688630691600,23.303691650390626,25.312501907348633,-17.006250381469727,-35.45625305175781
1694680688650681300,23.323681396484375,24.562501907348633,-17.287500381469727,-35.775001525878906
1694680688670692000,23.343692138671877,25.61250114440918,-16.912500381469727,-35.04375076293945
1694680688690696700,23.36369677734375,24.262500762939453,-17.34375,-34.76250076293945
1694680688710684700,23.3836845703125,22.818750381469727,-16.818750381469727,-34.76250076293945
1694680688730693600,23.403693603515624,25.42500114440918,-17.231250762939453,-34.14375305175781
1694680688750685400,23.423685546875,25.51875114440918,-17.25,-34.63125228881836
1694680688770697500,23.443697509765624,25.42500114440918,-17.25,-34.743751525878906
1694680688790702800,23.463702880859376,25.106250762939453,-17.34375,-34.743751525878906
1694680688810696700,23.48369677734375,25.42500114440918,-17.4375,-34.85625076293945
1694680688830702800,23.503702880859375,25.312501907348633,-17.17500114440918,-34.95000076293945
1694680688850705700,23.52370556640625,25.51875114440918,-17.08125114440918,-34.931251525878906
1694680688870703600,23.54370361328125,25.51875114440918,-17.34375,-34.95000076293945
1694680688890715000,23.56371484375,24.881250381469727,-17.625,-34.96875
1694680688910694400,23.5836943359375,25.106250762939453,-17.606250762939453,-34.76250076293945
1694680688930686000,23.60368603515625,25.406251907348633,-17.36250114440918,-35.36250305175781
1694680688950679000,23.623678955078127,25.837501525878906,-17.625,-35.15625
1694680688970666000,23.643666015625,25.837501525878906,-17.25,-34.53750228881836
1694680688990671400,23.66367138671875,25.837501525878906,-17.4375,-34.85625076293945
1694680689010672000,23.683672119140624,25.42500114440918,-17.17500114440918,-34.85625076293945
1694680689030673000,23.7036728515625,25.51875114440918,-16.98750114440918,-34.931251525878906
1694680689050677500,23.723677490234376,25.931251525878906,-17.0625,-34.72500228881836
1694680689070688300,23.743688232421874,25.406251907348633,-17.17500114440918,-35.04375076293945
1694680689090692600,23.763692626953127,25.51875114440918,-17.53125,-34.96875
1694680689110691600,23.783691650390626,25.537500381469727,-17.0625,-34.63125228881836
1694680689130697700,23.80369775390625,25.725000381469727,-17.34375,-34.85625076293945
1694680689150692900,23.82369287109375,25.725000381469727,-17.700000762939453,-34.96875
1694680689170690300,23.843690185546876,25.51875114440918,-17.4375,-34.95000076293945
1694680689190695400,23.8636953125,25.218751907348633,-16.98750114440918,-34.53750228881836
1694680689210687700,23.883687744140627,25.312501907348633,-17.17500114440918,-35.04375076293945
1694680689230678000,23.903677978515624,24.900001525878906,-17.17500114440918,-34.85625076293945
1694680689250666500,23.92366650390625,24.787500381469727,-17.45625114440918,-35.47500228881836
1694680689270675000,23.943675048828126,25.42500114440918,-17.418750762939453,-34.25625228881836
1694680689290683600,23.96368359375,24.693750381469727,-17.53125,-35.0625
1694680689310678000,23.983677978515626,25.218751907348633,-17.512500762939453,-34.556251525878906
1694680689330692000,24.003692138671877,25.312501907348633,-17.17500114440918,-34.85625076293945
1694680689350687500,24.0236875,25.725000381469727,-17.512500762939453,-34.650001525878906
1694680689370690800,24.04369091796875,25.931251525878906,-17.08125114440918,-34.837501525878906
1694680689390700500,24.063700439453125,26.043750762939453,-17.512500762939453,-34.53750228881836
1694680689410692600,24.083692626953123,26.250001907348633,-17.4375,-34.837501525878906
1694680689430686000,24.10368603515625,26.043750762939453,-17.17500114440918,-35.04375076293945
1694680689450684000,24.123683837890624,25.837501525878906,-17.08125114440918,-35.13750076293945
1694680689470691800,24.14369189453125,25.51875114440918,-16.98750114440918,-34.743751525878906
1694680689490684400,24.163684326171875,26.137500762939453,-17.34375,-34.837501525878906
1694680689510682400,24.183682373046874,25.725000381469727,-17.4375,-34.556251525878906
1694680689530688000,24.20368798828125,25.725000381469727,-17.606250762939453,-34.650001525878906
1694680689550680800,24.223680908203125,26.568750381469727,-17.4375,-34.743751525878906
1694680689570682400,24.243682373046877,25.725000381469727,-17.606250762939453,-34.95000076293945
1694680689590679800,24.2636796875,26.156251907348633,-17.4375,-34.63125228881836
1694680689610679000,24.283678955078123,25.931251525878906,-17.512500762939453,-34.650001525878906
1694680689630681300,24.303681396484375,26.45625114440918,-17.34375,-35.04375076293945
1694680689650674400,24.32367431640625,26.156251907348633,-17.0625,-34.53750228881836
1694680689670687700,24.343687744140624,26.156251907348633,-17.4375,-34.743751525878906
1694680689690694400,24.3636943359375,26.043750762939453,-17.34375,-34.743751525878906
1694680689710695000,24.38369482421875,25.61250114440918,-17.34375,-35.15625
1694680689730702300,24.403702392578126,26.568750381469727,-17.606250762939453,-34.44375228881836
1694680689750692400,24.4236923828125,25.837501525878906,-17.700000762939453,-34.85625076293945
1694680689770702600,24.44370263671875,25.931251525878906,-17.512500762939453,-34.743751525878906
1694680689790706700,24.463706787109373,26.137500762939453,-17.4375,-34.837501525878906
1694680689810697700,24.48369775390625,25.725000381469727,-17.512500762939453,-34.743751525878906
1694680689830686700,24.503686767578124,26.343751907348633,-17.17500114440918,-35.13750076293945
1694680689850692900,24.52369287109375,26.043750762939453,-17.4375,-35.15625
1694680689870694000,24.54369384765625,26.250001907348633,-17.681251525878906,-34.33125305175781
1694680689890694400,24.5636943359375,25.51875114440918,-17.606250762939453,-34.96875
1694680689910681900,24.583681884765625,25.931251525878906,-17.512500762939453,-34.95000076293945
1694680689930677800,24.603677734375,26.250001907348633,-17.4375,-34.837501525878906
1694680689950669800,24.623669921875,26.343751907348633,-17.606250762939453,-34.743751525878906
1694680689970671400,24.64367138671875,26.043750762939453,-16.98750114440918,-35.025001525878906
1694680689990676700,24.6636767578125,26.36250114440918,-17.418750762939453,-34.63125228881836
1694680690010677000,24.683677001953125,26.45625114440918,-17.34375,-34.837501525878906
1694680690030677800,24.703677734375,25.725000381469727,-17.887500762939453,-34.96875
1694680690050681000,24.72368115234375,25.743751525878906,-17.325000762939453,-34.33125305175781
1694680690070691300,24.74369140625,26.156251907348633,-17.34375,-34.743751525878906
1694680690090695000,24.76369482421875,26.343751907348633,-17.25,-34.837501525878906
1694680690110693000,24.783693115234374,26.250001907348633,-17.25,-34.63125228881836
1694680690130698800,24.80369873046875,25.61250114440918,-17.606250762939453,-34.85625076293945
1694680690150691000,24.823691162109377,25.725000381469727,-17.681251525878906,-34.556251525878906
1694680690170688800,24.843688720703124,25.837501525878906,-17.17500114440918,-34.931251525878906
1694680690190694100,24.863694091796877,26.45625114440918,-17.418750762939453,-34.42500305175781
1694680690210694100,24.883694091796876,24.993751525878906,-17.26875114440918,-35.26875305175781
1694680690230683000,24.903682861328125,26.043750762939453,-17.4375,-34.743751525878906
1694680690250669000,24.9236689453125,25.725000381469727,-17.606250762939453,-34.95000076293945
1694680690270668000,24.94366796875,26.343751907348633,-17.606250762939453,-34.95000076293945
1694680690290662000,24.963661865234375,26.45625114440918,-17.34375,-35.04375076293945
1694680690310661000,24.9836611328125,25.61250114440918,-17.4375,-35.15625
1694680690330679600,25.003679443359374,26.156251907348633,-17.4375,-34.63125228881836
1694680690350679000,25.023678955078125,25.725000381469727,-17.700000762939453,-34.85625076293945
1694680690370685400,25.043685546875,25.931251525878906,-17.512500762939453,-34.85625076293945
1694680690390697700,25.06369775390625,25.51875114440918,-17.17500114440918,-35.04375076293945
1694680690410691600,25.083691650390627,26.156251907348633,-17.34375,-34.63125228881836
1694680690430685700,25.103685791015625,26.45625114440918,-16.98750114440918,-34.72500228881836
1694680690450684400,25.123684326171876,25.61250114440918,-17.887500762939453,-34.96875
1694680690470683400,25.143683349609375,25.837501525878906,-17.25,-34.63125228881836
1694680690490678300,25.16367822265625,25.931251525878906,-17.34375,-35.04375076293945
1694680690510689500,25.183689453125,25.725000381469727,-17.15625,-34.63125228881836
1694680690530694100,25.203694091796876,24.993751525878906,-17.625,-35.0625
1694680690550686200,25.223686279296874,26.043750762939453,-17.512500762939453,-34.95000076293945
1694680690570687500,25.2436875,25.931251525878906,-17.606250762939453,-34.556251525878906
1694680690590684200,25.26368408203125,25.837501525878906,-17.700000762939453,-34.85625076293945
1694680690610679800,25.2836796875,26.250001907348633,-17.700000762939453,-34.95000076293945
1694680690630680600,25.3036806640625,25.725000381469727,-17.25,-34.53750228881836
1694680690650673400,25.32367333984375,26.250001907348633,-17.512500762939453,-34.837501525878906
1694680690670687000,25.34368701171875,25.61250114440918,-17.4375,-34.85625076293945
1694680690690693400,25.363693359375,25.725000381469727,-17.34375,-34.63125228881836
1694680690710694400,25.3836943359375,26.250001907348633,-17.512500762939453,-34.743751525878906
1694680690730701600,25.40370166015625,26.137500762939453,-17.606250762939453,-34.85625076293945
1694680690750691800,25.42369189453125,26.043750762939453,-17.25,-34.837501525878906
1694680690770702300,25.443702392578125,25.837501525878906,-17.34375,-34.63125228881836
1694680690790706400,25.46370654296875,26.568750381469727,-17.4375,-34.837501525878906
1694680690810697200,25.483697265625,25.725000381469727,-17.53125,-35.36250305175781
1694680690830686700,25.503686767578124,25.61250114440918,-17.34375,-34.95000076293945
1694680690850692900,25.52369287109375,24.993751525878906,-17.700000762939453,-34.875
1694680690870694000,25.54369384765625,25.931251525878906,-17.681251525878906,-34.650001525878906
1694680690890694100,25.563694091796876,25.61250114440918,-17.34375,-34.95000076293945
1694680690910681000,25.58368115234375,25.725000381469727,-17.34375,-34.743751525878906
1694680690930687700,25.603687744140625,25.931251525878906,-17.512500762939453,-34.556251525878906
1694680690950678000,25.623677978515627,25.725000381469727,-17.887500762939453,-35.15625
1694680690970680800,25.643680908203127,25.931251525878906,-17.34375,-34.837501525878906
1694680690990683400,25.663683349609375,25.631250381469727,-17.512500762939453,-34.556251525878906
1694680691010681600,25.683681640625,25.61250114440918,-17.606250762939453,-34.743751525878906
1694680691030680300,25.703680419921874,25.931251525878906,-17.26875114440918,-35.04375076293945
1694680691050682600,25.7236826171875,26.043750762939453,-17.512500762939453,-34.63125228881836
1694680691070691800,25.74369189453125,26.043750762939453,-17.512500762939453,-34.85625076293945
1694680691090695000,25.76369482421875,26.043750762939453,-17.512500762939453,-34.85625076293945
1694680691110692600,25.783692626953126,25.631250381469727,-17.775001525878906,-34.66875076293945
1694680691130699800,25.80369970703125,25.725000381469727,-17.962501525878906,-34.76250076293945
1694680691150701600,25.82370166015625,26.043750762939453,-17.4375,-34.63125228881836
1694680691170696700,25.84369677734375,25.42500114440918,-17.34375,-34.743751525878906
1694680691190699800,25.86369970703125,25.837501525878906,-17.512500762939453,-34.743751525878906
1694680691210678800,25.8836787109375,26.250001907348633,-17.25,-34.837501525878906
1694680691230670000,25.903670166015626,26.043750762939453,-17.606250762939453,-34.44375228881836
1694680691250659600,25.92365966796875,25.61250114440918,-17.512500762939453,-34.85625076293945
1694680691270663700,25.94366357421875,26.250001907348633,-17.606250762939453,-34.743751525878906
1694680691290659600,25.96365966796875,25.931251525878906,-17.25,-34.837501525878906
1694680691310660000,25.98366015625,25.931251525878906,-17.34375,-34.63125228881836
1694680691330679600,26.003679443359374,26.156251907348633,-17.4375,-34.743751525878906
1694680691350679300,26.02367919921875,24.806251525878906,-17.512500762939453,-34.556251525878906
1694680691370686000,26.04368603515625,25.537500381469727,-17.418750762939453,-34.25625228881836
1694680691390698200,26.0636982421875,25.725000381469727,-17.4375,-34.95000076293945
1694680691410692000,26.083692138671875,25.106250762939453,-17.625,-35.0625
1694680691430686500,26.1036865234375,25.931251525878906,-17.26875114440918,-35.04375076293945
1694680691450685200,26.123685302734376,24.693750381469727,-17.512500762939453,-34.66875076293945
1694680691470683600,26.14368359375,25.51875114440918,-17.26875114440918,-34.85625076293945
1694680691490682000,26.16368212890625,26.137500762939453,-17.606250762939453,-34.85625076293945
1694680691510681300,26.183681396484374,25.51875114440918,-17.26875114440918,-34.85625076293945
1694680691530687700,26.203687744140623,26.45625114440918,-17.512500762939453,-34.931251525878906
1694680691550681300,26.223681396484373,25.837501525878906,-17.25,-34.63125228881836
1694680691570683100,26.24368310546875,25.931251525878906,-17.26875114440918,-35.04375076293945
1694680691590681000,26.26368115234375,25.931251525878906,-17.512500762939453,-34.743751525878906
1694680691610675000,26.283675048828126,25.931251525878906,-17.34375,-34.743751525878906
1694680691630681900,26.303681884765624,25.725000381469727,-17.700000762939453,-34.85625076293945
1694680691650675200,26.32367529296875,25.725000381469727,-17.700000762939453,-34.85625076293945
1694680691670688300,26.343688232421876,26.043750762939453,-17.4375,-34.743751525878906
1694680691690695000,26.36369482421875,26.45625114440918,-17.700000762939453,-34.95000076293945
1694680691710695400,26.3836953125,26.043750762939453,-17.606250762939453,-35.04375076293945
1694680691730702600,26.40370263671875,25.51875114440918,-17.34375,-35.15625
1694680691750692600,26.423692626953127,26.043750762939453,-17.325000762939453,-34.53750228881836
1694680691770702800,26.443702880859377,26.043750762939453,-17.4375,-34.95000076293945
1694680691790706700,26.463706787109373,26.137500762939453,-17.512500762939453,-34.85625076293945
1694680691810697500,26.483697509765626,25.51875114440918,-17.17500114440918,-35.25
1694680691830686700,26.503686767578124,26.568750381469727,-17.4375,-34.837501525878906
1694680691850681600,26.523681640625,26.043750762939453,-17.512500762939453,-34.95000076293945
1694680691870677500,26.543677490234376,26.343751907348633,-17.17500114440918,-34.931251525878906
1694680691890670800,26.5636708984375,26.343751907348633,-17.606250762939453,-34.63125228881836
1694680691910661600,26.58366162109375,26.231250762939453,-17.887500762939453,-35.0625
1694680691930682400,26.603682373046876,26.36250114440918,-17.587501525878906,-34.33125305175781
1694680691950674700,26.6236748046875,26.043750762939453,-17.08125114440918,-34.931251525878906
1694680691970683600,26.64368359375,26.043750762939453,-17.4375,-34.743751525878906
1694680691990687000,26.66368701171875,25.837501525878906,-17.700000762939453,-35.0625
1694680692010685200,26.683685302734375,26.45625114440918,-17.4375,-34.837501525878906
1694680692030684200,26.70368408203125,25.818750381469727,-17.4375,-35.34375
1694680692050685700,26.723685791015626,25.42500114440918,-17.4375,-34.85625076293945
1694680692070694100,26.743694091796876,25.837501525878906,-17.34375,-34.837501525878906
1694680692090696400,26.763696533203124,25.725000381469727,-17.26875114440918,-34.837501525878906
1694680692110694000,26.78369384765625,26.043750762939453,-17.700000762939453,-35.04375076293945
1694680692130691300,26.80369140625,25.725000381469727,-17.34375,-34.95000076293945
